sequence,AccelerometerX,AccelerometerY,AccelerometerZ
0,648,363,3936
1,648,399,3936
2,630,399,3981
3,630,393,3972
4,675,390,3972
5,708,390,4071
6,708,474,4047
7,675,474,4047
8,675,366,4026
9,648,363,4026
10,822,363,4047
11,822,420,4086
12,1269,645,4086
13,1269,645,4401
14,1128,1023,4401
15,1338,1023,4767
16,1338,1608,5490
17,2124,1650,5490
18,2124,1650,5727
19,882,1860,5727
20,735,1860,5460
21,735,2526,5586
22,504,1971,5586
23,450,1971,5319
24,450,1197,5319
25,453,1197,5004
26,453,903,4524
27,18,504,4524
28,-45,504,3966
29,-45,591,3744
30,351,591,3744
31,351,537,3225
32,735,30,3225
33,1047,30,2868
34,1047,288,2721
35,1197,471,2721
36,1197,471,2628
37,1251,441,2628
38,1398,441,2577
39,1398,492,2592
40,1374,663,2592
41,1374,663,2796
42,1395,837,2796
43,1368,837,3288
44,1368,495,3399
45,1113,702,3399
46,504,702,3531
47,504,726,3531
48,741,726,3660
49,741,1065,4002
50,1200,480,4002
51,1611,480,4011
52,1611,192,3957
53,1374,192,3957
54,1374,90,3945
55,1062,141,3945
56,1269,141,3930
57,1269,261,3834
58,1398,261,3834
59,1398,39,3624
60,1557,-288,3624
61,1494,-288,3621
62,1494,-189,3579
63,1296,183,3579
64,1296,183,3681
65,1068,525,3681
66,1434,525,3771
67,1434,666,3846
68,1506,993,3846
69,1506,993,3897
70,1374,1185,3897
71,1023,1185,3846
72,1023,1302,4041
73,513,1353,4041
74,828,1353,4107
75,828,1533,4107
76,780,1533,4101
77,780,1683,3960
78,606,1659,3960
79,318,1659,3684
80,318,1698,3570
81,540,1698,3570
82,540,1722,3591
83,957,1713,3591
84,780,1713,3495
85,780,1725,3414
86,459,1617,3414
87,459,1617,3390
88,438,1602,3390
89,969,1602,3438
90,969,1686,3423
91,1071,1569,3423
92,960,1569,3450
93,960,1743,3450
94,702,1743,3576
95,702,1410,3756
96,-825,1617,3756
97,321,1617,4497
98,321,543,4011
99,1494,543,4011
100,1494,717,3399
101,786,1167,3399
102,363,1167,3519
103,363,1920,3972
104,630,1920,3972
105,630,2244,4743
106,1605,849,4743
107,1692,849,3621
108,1692,1251,4110
109,1176,1302,4110
110,1176,1302,3624
111,1344,1395,3624
112,1728,1395,2847
113,1728,1944,3354
114,2061,1695,3354
115,2061,1695,3102
116,2388,1548,3102
117,1908,1548,3198
118,1908,1251,3390
119,1395,633,3390
120,786,633,3279
121,786,159,3279
122,897,159,3384
123,897,372,3540
124,1287,1311,3540
125,1374,1311,3324
126,1374,1404,3288
127,1395,1404,3288
128,1395,1191,3489
129,1560,1200,3489
130,1248,1200,3348
131,1248,1431,3264
132,1227,1431,3264
133,1227,1770,3138
134,1785,1572,3138
135,1728,1572,2889
136,1728,1443,3027
137,2079,1734,3027
138,2079,1734,3084
139,780,1569,3084
140,453,1569,3189
141,453,993,3039
142,-264,1230,3039
143,-219,1230,2997
144,-219,1686,2997
145,-189,1686,3114
146,-189,1806,3255
147,219,1869,3255
148,423,1869,3393
149,423,2094,3519
150,285,2094,3519
151,285,2535,3459
152,684,3117,3459
153,855,3117,3228
154,855,3639,3039
155,1068,3639,3039
156,1068,3867,2907
157,1176,3234,2907
158,1098,3234,2922
159,1098,3141,2928
160,1077,3579,2928
161,1077,3579,2736
162,852,3693,2736
163,771,3693,2511
164,771,3636,2556
165,681,3204,2556
166,681,3204,2583
167,471,2748,2583
168,138,2748,2532
169,138,2502,2262
170,-39,2973,2262
171,108,2973,2046
172,108,3105,2046
173,93,3105,1920
174,93,2676,1734
175,123,2274,1734
176,303,2274,1683
177,303,2358,1638
178,546,2358,1638
179,546,2874,1668
180,612,3195,1668
181,846,3195,1764
182,846,3018,1818
183,750,3018,1818
184,750,3027,1986
185,345,3207,1986
186,384,3207,2046
187,384,3354,2346
188,318,3474,2346
189,318,3474,2376
190,207,3591,2376
191,126,3591,2505
192,126,3732,2427
193,-264,3861,2427
194,57,3861,2421
195,57,4020,2421
196,93,4020,2586
197,93,3915,2811
198,-30,3822,2811
199,-228,3822,2796
200,-228,3870,2511
201,-303,3870,2511
202,-303,4032,2385
203,-102,4059,2385
204,210,4059,2385
205,210,3861,2307
206,72,3861,2307
207,72,3483,2190
208,-102,3777,2190
209,-297,3777,2010
210,-297,4083,1704
211,-411,3903,1704
212,-411,3903,1773
213,-510,3651,1773
214,-669,3651,1725
215,-669,3738,1830
216,-543,3870,1830
217,-543,3870,1824
218,-540,4176,1824
219,-447,4176,1809
220,-447,4332,1815
221,-228,4182,1815
222,-159,4182,1890
223,-159,4152,1890
224,-12,4152,1884
225,-12,4206,1905
226,-93,4356,1905
227,-240,4356,1719
228,-240,3966,1548
229,-558,3966,1548
230,-558,3732,1404
231,-669,3507,1404
232,-699,3507,1374
233,-699,3552,1278
234,-654,3552,1278
235,-654,3387,1368
236,-669,3366,1368
237,-687,3366,1323
238,-687,3462,1368
239,-681,3669,1368
240,-681,3669,1344
241,-696,3909,1344
242,-666,3909,1392
243,-666,4143,1458
244,-663,4533,1458
245,-663,4533,1458
246,-774,4743,1458
247,-648,4743,1494
248,-648,4644,1509
249,-546,4500,1509
250,-324,4500,1644
251,-324,4263,1644
252,-288,4263,1584
253,-288,3768,1539
254,-240,3237,1539
255,-219,3237,1524
256,-219,2763,1548
257,-435,2763,1548
258,-435,2793,1650
259,-504,3207,1650
260,-405,3207,1542
261,-405,3225,1518
262,-456,3225,1518
263,-456,3249,1482
264,-315,3222,1482
265,-351,3222,1374
266,-351,3315,1203
267,-321,3465,1203
268,-321,3465,1137
269,-204,4089,1137
270,-246,4089,1008
271,-246,4491,972
272,-168,4476,972
273,-168,4476,981
274,-342,4410,981
275,-423,4410,1107
276,-423,4320,1077
277,-480,4113,1077
278,-678,4113,1143
279,-678,4134,1143
280,-762,4134,1038
281,-762,3933,1161
282,-654,3681,1161
283,-408,3681,1191
284,-408,3648,1173
285,-288,3648,1173
286,-288,3780,1161
287,-348,3654,1161
288,-462,3654,1173
289,-462,3396,1143
290,-630,3396,1143
291,-630,3465,1146
292,-648,3693,1146
293,-696,3693,1002
294,-696,3927,1053
295,-516,4125,1053
296,-516,4125,1056
297,-213,4170,1056
298,-66,4170,1032
299,-66,4350,1038
300,3,4224,1038
301,3,4224,1098
302,-72,4125,1098
303,-132,4125,1122
304,-132,3960,1251
305,-171,3885,1251
306,-288,3885,1383
307,-288,3774,1383
308,-333,3774,1452
309,-333,3795,1509
310,-336,3849,1509
311,-372,3849,1368
312,-372,3819,1314
313,-342,3819,1314
314,-342,3822,1236
315,-264,3879,1236
316,-189,3879,1158
317,-189,3873,1203
318,-180,3873,1203
319,-180,4023,1128
320,-99,4053,1128
321,-108,4053,1083
322,-108,4032,1098
323,-63,3981,1098
324,-63,3981,1236
325,-183,3858,1236
326,-177,3858,1248
327,-177,3882,1314
328,-246,3906,1314
329,-246,3906,1377
330,-213,3942,1377
331,-264,3942,1398
332,-264,3933,1413
333,-246,3870,1413
334,-333,3870,1524
335,-333,3822,1524
336,-423,3822,1710
337,-423,4032,1689
338,-441,3945,1689
339,-498,3945,1689
340,-498,3858,1785
341,-492,3858,1785
342,-492,3858,1890
343,-546,3912,1890
344,-624,3912,2004
345,-624,3975,2016
346,-642,3975,2016
347,-642,4017,1929
348,-447,4038,1929
349,-609,4038,2205
350,-609,4023,2235
351,-660,4152,2235
352,-660,4152,2280
353,-648,4287,2280
354,-489,4287,2277
355,-489,4101,2376
356,-540,3846,2376
357,-555,3846,2631
358,-555,3735,2631
359,-516,3735,2643
360,-516,3951,2742
361,-396,4176,2742
362,-423,4176,2832
363,-423,4125,2943
364,-447,4125,2943
365,-447,4164,2919
366,-654,4209,2919
367,-618,4209,2964
368,-618,3933,3042
369,-717,3933,3042
370,-717,4104,3159
371,-837,4293,3159
372,-798,4293,3057
373,-798,3999,3012
374,-906,3999,3012
375,-906,3930,3228
376,-966,3777,3228
377,-1146,3777,3324
378,-1146,3828,3390
379,-1137,3858,3390
380,-1137,3858,3360
381,-957,3846,3360
382,-798,3846,3384
383,-798,3780,3561
384,-786,3840,3561
385,-753,3840,3681
386,-753,3957,3681
387,-720,3957,3594
388,-720,3792,3549
389,-702,3456,3549
390,-717,3456,3711
391,-717,3342,3810
392,-801,3342,3810
393,-801,3444,3804
394,-723,3450,3804
395,-651,3450,3774
396,-651,3213,3696
397,-714,3213,3696
398,-714,3135,3639
399,-744,2868,3639
400,-870,2868,3666
401,-870,2484,3510
402,-765,2583,3510
403,-765,2583,3540
404,-480,2472,3540
405,-153,2472,3546
406,-153,2436,3453
407,-282,2181,3453
408,-282,2181,3405
409,-273,2115,3405
410,-606,2115,3450
411,-606,1752,3348
412,-711,1539,3348
413,-648,1539,3345
414,-648,1476,3345
415,-792,1476,3354
416,-792,1257,3408
417,-855,1110,3408
418,-831,1110,3375
419,-831,939,3360
420,-750,939,3360
421,-750,774,3288
422,-837,504,3288
423,-669,504,3270
424,-669,483,3039
425,-636,483,3039
426,-636,564,2778
427,-204,225,2778
428,-150,225,2586
429,-150,-78,2472
430,12,-342,2472
431,12,-342,2346
432,195,-255,2346
433,147,-255,2085
434,147,-441,1830
435,276,-666,1830
436,501,-666,1788
437,501,-792,1788
438,534,-792,1563
439,534,-1017,1605
440,519,-1167,1605
441,414,-1167,1437
442,414,-1209,1329
443,267,-1209,1329
444,267,-1209,1437
445,225,-1404,1437
446,48,-1404,1494
447,48,-1458,1710
448,-12,-1458,1710
449,-12,-1512,1860
450,111,-1332,1860
451,216,-1332,1908
452,216,-1053,2094
453,303,-1086,2094
454,303,-1086,2295
455,174,-1062,2295
456,-15,-1062,2421
457,-15,-1011,2496
458,-30,-720,2496
459,-30,-720,2676
460,-60,-966,2676
461,-366,-966,2787
462,-366,-888,2943
463,-486,-663,2943
464,-249,-663,3042
465,-249,-27,3204
466,-72,-27,3204
467,-72,69,3318
468,-30,21,3318
469,-447,21,3258
470,-447,-183,3138
471,-582,-183,3138
472,-582,81,2967
473,-378,579,2967
474,-351,579,3192
475,-351,381,3225
476,-507,339,3225
477,-507,339,3132
478,-771,543,3132
479,-651,543,3033
480,-651,951,3042
481,-579,1230,3042
482,-579,1230,3270
483,-576,1209,3270
484,-669,1209,3210
485,-669,1170,3123
486,-903,1410,3123
487,-945,1410,2988
488,-945,1470,2988
489,-774,1470,3192
490,-774,1632,3324
491,-744,1857,3324
492,-966,1857,3288
493,-966,2079,3129
494,-885,2079,3129
495,-885,2049,3288
496,-1029,2328,3288
497,-567,2328,3228
498,-567,2715,3192
499,-576,2715,3192
500,-576,2343,3162
501,-636,2739,3162
502,-594,2739,3354
503,-594,3021,3525
504,-609,3273,3525
505,-609,3273,3498
506,-723,3501,3498
507,-804,3501,3459
508,-804,3420,3741
509,-1011,3615,3741
510,-1011,3615,3750
511,-885,4035,3750
512,-930,4035,3564
513,-930,4284,3234
514,-645,3777,3234
515,-729,3777,3318
516,-729,3366,3318
517,-747,3366,3303
518,-747,3906,3303
519,-564,4218,3303
520,-678,4218,3042
521,-678,4509,2637
522,-852,4509,2637
523,-852,4011,2808
524,-1188,4146,2808
525,-1236,4146,2826
526,-1236,4224,2583
527,-1392,4224,2583
528,-1392,4146,2322
529,-1368,3885,2322
530,-1092,3885,2502
531,-1092,3939,2496
532,-954,4242,2496
533,-954,4242,2568
534,-921,4170,2568
535,-1005,4170,2376
536,-1005,4251,2091
537,-1005,4371,2091
538,-1005,4371,2292
539,-1119,4068,2292
540,-1113,4068,2265
541,-1113,4275,2190
542,-1317,4335,2190
543,-1374,4335,1878
544,-1374,4260,1878
545,-1092,4260,1770
546,-1092,4416,1758
547,-1035,4227,1758
548,-852,4227,1704
549,-852,4167,1557
550,-957,4167,1557
551,-957,3969,1509
552,-816,3903,1509
553,-744,3903,1419
554,-744,3990,1419
555,-366,4230,1419
556,-366,4230,1383
557,-141,4284,1383
558,-60,4284,1443
559,-60,4332,1548
560,-102,4218,1548
561,-102,4218,1509
562,-384,4341,1509
563,-504,4341,1464
564,-504,4356,1251
565,-609,4284,1251
566,-648,4284,1233
567,-648,4206,1233
568,-696,4206,1347
569,-696,4197,1764
570,-1263,4305,1764
571,-1371,4305,2076
572,-1371,4335,2079
573,-1218,4335,2079
574,-1218,4338,1605
575,-786,4251,1605
576,-375,4251,1173
577,-375,4059,732
578,-189,4059,732
579,-189,3771,354
580,-114,3759,354
581,-219,3759,168
582,-219,3771,159
583,-324,3819,159
584,-324,3819,234
585,-267,3912,234
586,-234,3912,429
587,-234,3909,591
588,-168,4053,591
589,-177,4053,696
590,-177,4092,696
591,-102,4092,747
592,-102,4008,807
593,42,4110,807
594,249,4110,705
595,249,4278,675
596,363,4278,675
597,363,4221,672
598,306,4131,672
599,210,4131,696
600,210,4023,645
601,63,4023,645
602,63,4059,672
603,-27,4041,672
604,-48,4041,624
605,-48,4104,672
606,-84,4131,672
607,-84,4131,705
608,-240,4134,705
609,-315,4134,702
610,-315,4095,540
611,-354,4095,540
612,-333,4095,474
613,-333,3954,474
614,-402,3954,504
615,-402,3858,315
616,-333,3855,315
617,-240,3855,288
618,-240,3924,279
619,-198,3924,279
620,-198,3954,396
621,-195,4068,396
622,-267,4068,396
623,-267,4086,441
624,-357,4086,441
625,-357,4119,471
626,-348,4062,471
627,-390,4062,426
628,-390,4080,534
629,-342,4017,534
630,-342,4017,426
631,-315,4080,426
632,-282,4080,420
633,-282,4080,495
634,-270,4029,495
635,-291,4029,516
636,-291,3990,516
637,-279,3990,501
638,-279,4011,504
639,-315,3993,504
640,-336,3993,474
641,-336,4107,429
642,-366,4107,429
643,-366,4086,396
644,-324,4035,396
645,-279,4035,444
646,-279,4011,441
647,-216,4011,441
648,-216,4065,405
649,-255,4062,405
650,-210,4062,396
651,-210,4083,456
652,-165,4059,456
653,-165,4059,369
654,-144,4047,369
655,-219,4047,360
656,-219,4023,396
657,-177,3984,396
658,-141,3984,345
659,-141,4047,345
660,-96,4047,369
661,-96,4101,381
662,-63,4050,381
663,-126,4050,414
664,-126,4077,465
665,-219,4077,465
666,-219,4053,384
667,-324,4059,384
668,-360,4059,381
669,-360,4068,360
670,-306,4101,360
671,-306,4101,381
672,-237,4128,381
673,-210,4128,375
674,-210,4152,381
675,-210,4152,381
676,-210,4152,426
677,-228,4125,426
678,-264,4125,399
679,-264,4059,369
680,-267,4074,369
681,-279,4074,390
682,-279,4086,390
683,-258,4086,330
684,-258,4161,336
685,-237,4149,336
686,-189,4149,354
687,-189,4008,384
688,-222,4008,384
689,-222,3987,303
690,-231,4092,303
691,-213,4092,234
692,-213,4098,336
693,-255,4098,336
694,-255,4080,315
695,-273,4005,315
696,-267,4005,429
697,-267,4026,420
698,-219,4110,420
699,-219,4110,369
700,-252,4131,369
701,-165,4131,384
702,-165,4125,426
703,-111,4146,426
704,-141,4146,399
705,-141,4095,399
706,-108,4095,381
707,-108,4059,345
708,-108,4077,345
709,-183,4077,351
710,-183,4092,384
711,-165,4092,384
712,-165,4059,396
713,-216,4092,396
714,-222,4092,339
715,-222,4053,375
716,-219,4077,375
717,-219,4077,369
718,-201,4101,369
719,-177,4101,300
720,-177,4110,369
721,-228,4128,369
722,-228,4128,339
723,-240,4092,339
724,-240,4092,309
725,-240,4050,315
726,-255,4026,315
727,-297,4026,336
728,-297,4053,336
729,-348,4053,339
730,-348,4059,303
731,-339,4035,303
732,-318,4035,273
733,-318,4014,369
734,-219,4014,369
735,-219,4035,354
736,-228,4053,354
737,-198,4053,351
738,-198,4098,351
739,-186,4065,351
740,-186,4065,390
741,-213,4026,390
742,-171,4026,339
743,-171,4041,354
744,-180,4062,354
745,-180,4062,420
746,-171,4101,420
747,-186,4101,354
748,-186,4095,309
749,-144,4068,309
750,-126,4068,396
751,-126,4029,396
752,-102,4029,399
753,-102,4047,360
754,-129,4092,360
755,-186,4092,390
756,-186,4059,324
757,-141,4059,324
758,-141,4083,345
759,-129,4116,345
760,-153,4116,381
761,-153,4086,354
762,-186,4086,354
763,-186,4092,285
764,-246,4062,285
765,-267,4062,321
766,-267,4062,345
767,-237,4059,345
768,-237,4059,351
769,-237,4074,351
770,-231,4074,336
771,-231,4140,429
772,-288,4092,429
773,-288,4092,339
774,-285,4080,339
775,-321,4080,426
776,-321,4014,459
777,-336,4038,459
778,-333,4038,486
779,-333,4083,486
780,-369,4083,426
781,-369,4047,444
782,-324,3990,444
783,-270,3990,375
784,-270,4032,399
785,-204,4032,399
786,-204,3972,546
787,-291,4107,546
788,-246,4107,576
789,-246,4146,606
790,-255,4146,606
791,-255,4032,642
792,-339,3999,642
793,-429,3999,735
794,-429,4023,936
795,-540,4146,936
796,-540,4146,972
797,-675,4143,972
798,-663,4143,1086
799,-663,4257,1221
800,-618,4215,1221
801,-636,4215,1263
802,-636,4332,1263
803,-699,4332,1323
804,-699,4290,1368
805,-600,4293,1368
806,-612,4293,1443
807,-612,4311,1638
808,-486,4311,1638
809,-486,4383,1635
810,-495,4431,1635
811,-459,4431,1755
812,-459,4371,1893
813,-495,4371,1893
814,-495,4371,1941
815,-369,4365,1941
816,-411,4365,2136
817,-411,4569,2205
818,-480,4698,2205
819,-480,4698,2175
820,-612,4665,2175
821,-723,4665,2235
822,-723,4575,2277
823,-780,4542,2277
824,-801,4542,2415
825,-801,4536,2415
826,-729,4536,2412
827,-729,4611,2391
828,-762,4716,2391
829,-876,4716,2475
830,-876,4632,2520
831,-843,4632,2520
832,-843,4569,2607
833,-894,4674,2607
834,-993,4674,2583
835,-993,4647,2490
836,-930,4647,2490
837,-930,4479,2475
838,-1023,4137,2475
839,-861,4137,2496
840,-861,4059,2532
841,-975,4131,2532
842,-975,4131,2412
843,-855,3771,2412
844,-786,3771,2421
845,-786,3618,2505
846,-852,3753,2505
847,-852,3753,2577
848,-366,3675,2577
849,-396,3675,2751
850,-396,3609,2853
851,-372,3519,2853
852,-477,3519,2766
853,-477,3108,2766
854,-699,3108,3042
855,-699,3123,3072
856,-546,3057,3072
857,21,3057,3234
858,21,3093,3204
859,-213,3093,3204
860,-213,2832,3288
861,-324,2505,3288
862,-876,2505,3303
863,-876,2340,3360
864,-993,2340,3360
865,-993,2085,3348
866,-975,2055,3348
867,-960,2055,3339
868,-960,2109,3354
869,-858,1941,3354
870,-858,1941,3495
871,-693,1656,3495
872,-618,1656,3468
873,-618,1662,3294
874,-753,1476,3294
875,-696,1476,3330
876,-696,1476,3330
877,-837,1476,3333
878,-837,1191,3309
879,-717,1131,3309
880,-453,1131,3189
881,-453,966,3174
882,-252,966,3174
883,-252,984,3114
884,-369,723,3114
885,-339,723,3069
886,-339,351,2982
887,-288,351,2982
888,-288,228,3012
889,-348,321,3012
890,-258,321,2943
891,-258,177,2982
892,-117,6,2982
893,-117,6,2922
894,12,-63,2922
895,186,-63,2934
896,186,-147,2934
897,252,-150,2934
898,252,-150,2889
899,90,-291,2889
900,12,-291,2658
901,12,-381,2712
902,9,-561,2712
903,-33,-561,2658
904,-33,-552,2658
905,42,-552,2616
906,42,-507,2541
907,108,-636,2541
908,-27,-636,2487
909,-27,-858,2511
910,-63,-858,2511
911,-63,-816,2517
912,-93,-741,2517
913,-27,-741,2547
914,-27,-753,2481
915,-90,-894,2481
916,-90,-894,2397
917,-30,-720,2397
918,117,-720,2430
919,117,-504,2427
920,87,-492,2427
921,87,-492,2568
922,-201,-849,2568
923,-393,-849,2601
924,-393,-630,2742
925,-213,-249,2742
926,63,-249,2769
927,63,264,2769
928,-93,264,2988
929,-93,-27,2988
930,-264,-90,2988
931,-477,-90,2997
932,-477,78,2862
933,-555,78,2862
934,-555,210,2811
935,-369,522,2811
936,-543,522,2898
937,-543,414,2967
938,-744,414,2967
939,-744,465,2979
940,-855,507,2979
941,-939,507,2811
942,-939,927,2964
943,-930,1077,2964
944,-930,1077,2997
945,-798,1263,2997
946,-531,1263,3174
947,-531,1578,3225
948,-891,1371,3225
949,-891,1371,3144
950,-1047,1416,3144
951,-1131,1416,3300
952,-1131,1602,3339
953,-858,1863,3339
954,-528,1863,3339
955,-528,2163,3339
956,-540,2163,3363
957,-540,2202,3444
958,-351,2202,3444
959,-525,2202,3435
960,-525,2529,3345
961,-702,2529,3345
962,-702,2487,3159
963,-885,2520,3159
964,-1044,2520,3054
965,-1044,2871,3273
966,-936,2871,3273
967,-936,2982,3048
968,-258,3270,3048
969,297,3270,2757
970,297,3573,2811
971,-57,2724,2811
972,-57,2724,3057
973,-594,3309,3057
974,-765,3309,3228
975,-765,3585,3204
976,-402,4347,3204
977,-999,4347,2877
978,-999,3864,2877
979,-1254,3864,3204
980,-1254,3870,3324
981,-1215,4428,3324
982,-1185,4428,3249
983,-1185,4365,2919
984,-1104,4365,2919
985,-1104,4134,2673
986,-1161,3960,2673
987,-1044,3960,2898
988,-1044,3999,2862
989,-849,3999,2862
990,-849,4302,2883
991,-1041,4305,2883
992,-1611,4305,2793
993,-1611,4095,2511
994,-1908,3804,2511
995,-1908,3804,2862
996,-2094,4209,2862
997,-1386,4209,2967
998,-1386,4425,2817
999,-1242,4545,2817
1000,-960,4545,2550
1001,-960,4269,2550
1002,-1161,4269,2391
1003,-1161,4350,2124
1004,-1119,4083,2124
1005,-1011,4083,1986
1006,-1011,4275,1749
1007,-762,4275,1749
1008,-762,4257,1620
1009,-651,4062,1620
1010,-540,4062,1557
1011,-540,3915,1383
1012,-327,3915,1383
1013,-327,4053,1308
1014,-162,4134,1308
1015,-108,4134,1248
1016,-108,4227,1143
1017,-147,4149,1143
1018,-147,4149,1038
1019,-144,3891,1038
1020,-309,3891,1071
1021,-309,3888,1113
1022,-246,4161,1113
1023,-246,4161,1092
1024,-351,4041,1092
1025,-459,4041,1047
1026,-459,4056,1023
1027,-183,3957,1023
1028,141,3957,1146
1029,141,4350,1299
1030,234,4350,1299
1031,234,4413,1107
1032,294,4428,1107
1033,159,4428,951
1034,159,4212,837
1035,-189,4212,837
1036,-189,3696,1167
1037,-1080,3852,1167
1038,-1386,3852,951
1039,-1386,4044,840
1040,-1320,4302,840
1041,-1320,4302,741
1042,-711,4281,741
1043,-120,4281,711
1044,-120,4092,942
1045,-63,3879,942
1046,-63,3879,927
1047,9,4254,927
1048,-120,4254,825
1049,-120,4236,741
1050,-327,3990,741
1051,-357,3990,681
1052,-357,3951,681
1053,-360,3951,675
1054,-360,4011,687
1055,-336,4026,687
1056,-201,4026,642
1057,-201,4230,672
1058,-141,4230,672
1059,-141,4266,501
1060,-171,4074,501
1061,-165,4074,426
1062,-165,3936,288
1063,-165,3936,288
1064,-165,3957,228
1065,288,4035,228
1066,393,4035,135
1067,393,4029,84
1068,450,4074,84
1069,450,4074,18
1070,399,3984,18
1071,243,3984,15
1072,243,4140,-93
1073,69,4065,-93
1074,-186,4065,-153
1075,-186,3861,-153
1076,-429,3861,-147
1077,-429,3786,-21
1078,180,4266,-21
1079,30,4266,9
1080,30,4326,15
1081,60,4326,15
1082,60,4314,78
1083,-177,4194,78
1084,-321,4194,18
1085,-321,3939,-51
1086,-387,3939,-51
1087,-387,3888,-102
1088,-456,3879,-102
1089,-294,3879,-198
1090,-294,4143,-402
1091,-66,4317,-402
1092,-66,4317,-312
1093,750,5067,-312
1094,-408,5067,-177
1095,-408,3525,-774
1096,-495,4152,-774
1097,3,4152,-549
1098,3,4491,-549
1099,741,4491,-378
1100,741,3972,-660
1101,-462,3990,-660
1102,210,3990,-684
1103,210,4065,-669
1104,-393,4065,-669
1105,-393,4008,-789
1106,-132,4083,-789
1107,372,4083,-765
1108,372,4533,-675
1109,672,4533,-675
1110,672,4197,-678
1111,159,3591,-678
1112,-462,3591,-1230
1113,-462,3594,-1269
1114,-321,3639,-1269
1115,-321,3639,-1266
1116,-111,3759,-1266
1117,63,3759,-1230
1118,63,3993,-1125
1119,-312,4074,-1125
1120,-312,4074,-825
1121,-942,4329,-825
1122,-570,4329,-483
1123,-570,3948,-459
1124,-888,3717,-459
1125,-957,3717,-708
1126,-957,3789,-708
1127,-612,3789,-918
1128,-612,4269,-597
1129,-84,4293,-597
1130,-282,4293,-825
1131,-282,3825,-1266
1132,264,3825,-1266
1133,264,4449,-1044
1134,438,4131,-1044
1135,222,4131,-963
1136,222,4068,-903
1137,-117,4278,-903
1138,-117,4278,-858
1139,-219,4296,-858
1140,-144,4296,-795
1141,-144,4335,-765
1142,-240,3954,-765
1143,-318,3954,-864
1144,-318,4014,-864
1145,-294,4014,-879
1146,-294,4110,-810
1147,-66,3990,-810
1148,-636,3990,-1041
1149,-636,4461,-1014
1150,-138,4461,-1014
1151,-138,4473,-894
1152,-432,4248,-894
1153,-324,4248,-1095
1154,-324,4023,-1131
1155,-591,4023,-1131
1156,-591,3747,-1251
1157,-618,3843,-1251
1158,-576,3843,-1266
1159,-576,3777,-1470
1160,-810,3558,-1470
1161,-810,3558,-1431
1162,-840,3468,-1431
1163,-477,3468,-1161
1164,-477,3804,-1245
1165,-411,3897,-1245
1166,-378,3897,-1095
1167,-378,3843,-1095
1168,-549,3843,-948
1169,-549,3705,-933
1170,-735,3774,-933
1171,-981,3774,-945
1172,-981,3753,-945
1173,-684,3753,-738
1174,-684,3921,-567
1175,-579,4212,-567
1176,-186,4212,-537
1177,-186,4371,-387
1178,0,4371,-387
1179,0,4524,-258
1180,105,4488,-258
1181,15,4488,-138
1182,15,4317,-252
1183,102,4368,-252
1184,102,4368,-243
1185,-69,4317,-243
1186,-114,4317,-246
1187,-114,4185,-213
1188,-312,3792,-213
1189,-312,3792,-342
1190,-528,3690,-342
1191,-582,3690,-459
1192,-582,3741,-558
1193,-540,3933,-558
1194,-495,3933,-564
1195,-495,4065,-564
1196,-618,4065,-648
1197,-618,4098,-468
1198,-579,4002,-468
1199,-741,4002,-444
1200,-741,3945,-414
1201,-819,3945,-414
1202,-819,3924,-489
1203,-741,3942,-489
1204,-627,3942,-624
1205,-627,4074,-558
1206,-447,4155,-558
1207,-447,4155,-429
1208,-333,4164,-429
1209,-420,4164,-276
1210,-420,4116,-276
1211,-492,4128,-276
1212,-492,4128,-291
1213,-447,4194,-291
1214,-405,4194,-258
1215,-405,4332,-108
1216,-447,4323,-108
1217,-459,4323,-63
1218,-459,4263,-63
1219,-540,4263,159
1220,-540,4062,150
1221,-561,4242,150
1222,-720,4242,390
1223,-720,4362,624
1224,-891,4362,624
1225,-891,4518,651
1226,-876,4647,651
1227,-1056,4647,666
1228,-1056,4632,987
1229,-738,4632,987
1230,-738,4650,1284
1231,-897,4680,1284
1232,-768,4680,1377
1233,-768,4959,1437
1234,-804,4842,1437
1235,-804,4842,1458
1236,-732,4647,1458
1237,-654,4647,1659
1238,-654,4866,1755
1239,-666,5148,1755
1240,-525,5148,1710
1241,-525,5115,1710
1242,-879,5115,1770
1243,-879,4833,1920
1244,-915,4887,1920
1245,-939,4887,1845
1246,-939,5007,1941
1247,-888,5007,1941
1248,-888,4971,1890
1249,-1113,4797,1890
1250,-990,4797,2034
1251,-990,4722,2241
1252,-1092,4722,2241
1253,-1092,4875,2196
1254,-1143,4902,2196
1255,-1131,4902,2154
1256,-1131,4737,2169
1257,-1095,4653,2169
1258,-1095,4653,2184
1259,-912,4680,2184
1260,-744,4680,2196
1261,-744,4740,2340
1262,-510,4641,2340
1263,-510,4641,2337
1264,-429,4398,2337
1265,-441,4398,2457
1266,-441,4230,2487
1267,-729,4245,2487
1268,-516,4245,2541
1269,-516,3897,2541
1270,-342,3897,2676
1271,-342,3786,2712
1272,-279,3933,2712
1273,-498,3933,2748
1274,-498,3756,2652
1275,-597,3756,2652
1276,-597,3309,2631
1277,-582,2988,2631
1278,-453,2988,2661
1279,-453,3135,2706
1280,-405,2982,2706
1281,-405,2982,2703
1282,-513,2709,2703
1283,-525,2709,2628
1284,-525,2226,2718
1285,-102,2004,2718
1286,-102,2004,2904
1287,-249,2139,2904
1288,-573,2139,2982
1289,-573,2262,2892
1290,-906,1887,2892
1291,-717,1887,2736
1292,-717,1335,2736
1293,-420,1335,2862
1294,-420,1566,3069
1295,-465,1395,3069
1296,-555,1395,3144
1297,-555,1185,3129
1298,-453,1185,3129
1299,-453,993,3108
1300,-258,1140,3108
1301,-216,1140,3228
1302,-216,1254,3219
1303,-180,1254,3219
1304,-180,651,3198
1305,-402,372,3198
1306,-246,372,3225
1307,-246,234,3339
1308,-15,378,3339
1309,-15,378,3285
1310,30,375,3285
1311,36,375,3072
1312,36,177,2898
1313,-477,-195,2898
1314,-426,-195,2562
1315,-426,-492,2562
1316,-486,-492,2352
1317,-486,-612,2166
1318,-240,-681,2166
1319,-204,-681,2064
1320,-204,-1128,2004
1321,96,-1128,2004
1322,96,-834,2109
1323,132,-744,2109
1324,174,-744,2166
1325,174,-789,2025
1326,45,-867,2025
1327,45,-867,2076
1328,12,-795,2076
1329,-30,-795,2109
1330,-30,-759,2004
1331,-99,-855,2004
1332,-99,-855,2034
1333,-228,-966,2034
1334,-282,-966,2184
1335,-282,-840,2256
1336,-240,-567,2256
1337,-183,-567,2370
1338,-183,-267,2370
1339,-144,-267,2523
1340,-144,-204,2631
1341,-291,-300,2631
1342,-288,-300,2598
1343,-288,-45,2436
1344,-300,-45,2436
1345,-300,360,2466
1346,-309,282,2466
1347,-687,282,2628
1348,-687,138,2808
1349,-906,153,2808
1350,-906,153,2847
1351,-930,729,2847
1352,-1029,729,2856
1353,-1029,1122,2988
1354,-1068,1245,2988
1355,-1068,1245,3147
1356,-1239,1167,3147
1357,-1308,1167,3132
1358,-1308,1311,3123
1359,-1338,1596,3123
1360,-1137,1596,3024
1361,-1137,1710,3024
1362,-1119,1710,3024
1363,-1119,1905,3069
1364,-1155,1956,3069
1365,-1335,1956,2922
1366,-1335,1941,2658
1367,-1101,1941,2658
1368,-1101,2679,2904
1369,-1266,2154,2904
1370,-1206,2154,2934
1371,-1206,2427,2982
1372,-1512,2511,2982
1373,-1512,2511,2763
1374,-1836,2934,2763
1375,-1560,2934,2658
1376,-1560,3051,2727
1377,-1410,2892,2727
1378,-1422,2892,3042
1379,-1422,3096,3042
1380,-1704,3096,2937
1381,-1704,3162,2922
1382,-1704,3324,2922
1383,-1731,3324,2913
1384,-1731,3759,2994
1385,-1323,3759,2994
1386,-1323,4137,3183
1387,-1344,3960,3183
1388,-1422,3960,3183
1389,-1422,3660,3132
1390,-1755,3660,3132
1391,-1755,4173,3129
1392,-1908,4290,3129
1393,-1446,4290,2982
1394,-1446,4539,3024
1395,-1596,4296,3024
1396,-1596,4296,3027
1397,-1896,3762,3027
1398,-2049,3762,2841
1399,-2049,3918,2571
1400,-2085,4068,2571
1401,-2085,4068,2337
1402,-1476,4593,2337
1403,-1335,4593,2475
1404,-1335,4020,2616
1405,-1248,3717,2616
1406,-1452,3717,2622
1407,-1452,3819,2622
1408,-1461,3819,2427
1409,-1461,3927,2211
1410,-1620,4323,2211
1411,-1539,4323,2046
1412,-1539,4155,2325
1413,-1488,4155,2325
1414,-1488,4044,1950
1415,-966,4386,1950
1416,-885,4386,1785
1417,-885,4314,1608
1418,-903,4314,1608
1419,-903,4317,1599
1420,-897,4098,1599
1421,-1137,4098,1548
1422,-1137,3918,1434
1423,-1098,3981,1434
1424,-1098,3981,1314
1425,-987,3999,1314
1426,-939,3999,1191
1427,-939,4164,1272
1428,-780,4047,1272
1429,-774,4047,1368
1430,-774,4008,1368
1431,-825,4008,1347
1432,-825,4017,1353
1433,-807,4146,1353
1434,-765,4146,1353
1435,-765,4188,1263
1436,-714,4188,1263
1437,-714,4170,1329
1438,-636,4161,1329
1439,-699,4161,1266
1440,-699,4164,1263
1441,-729,4158,1263
1442,-729,4158,1251
1443,-774,4155,1251
1444,-801,4155,1092
1445,-801,4179,1113
1446,-792,4137,1113
1447,-972,4137,945
1448,-972,4086,945
1449,-1551,4086,1167
1450,-1551,3954,1527
1451,-1926,4095,1527
1452,-2007,4095,1755
1453,-2007,4227,1614
1454,-1677,4227,1614
1455,-1677,4398,1227
1456,-1221,4191,1227
1457,-762,4191,786
1458,-762,4044,516
1459,-453,4044,516
1460,-453,3939,279
1461,-390,3912,279
1462,-420,3912,159
1463,-420,3855,165
1464,-405,3861,165
1465,-405,3861,108
1466,-441,3948,108
1467,-438,3948,63
1468,-438,4017,138
1469,-348,4041,138
1470,-516,4041,195
1471,-516,4017,195
1472,-567,4017,240
1473,-567,3936,273
1474,-744,3975,273
1475,-822,3975,345
1476,-822,3966,429
1477,-906,3966,429
1478,-906,3957,591
1479,-948,4056,591
1480,-981,4056,666
1481,-981,4065,750
1482,-870,4065,750
1483,-870,4113,711
1484,-789,4038,711
1485,-684,4038,675
1486,-684,4110,666
1487,-516,4101,666
1488,-516,4101,534
1489,-426,4152,534
1490,-444,4152,471
1491,-444,4110,354
1492,-426,4089,354
1493,-471,4089,399
1494,-471,4113,399
1495,-438,4113,336
1496,-438,4035,381
1497,-459,4050,381
1498,-525,4050,330
1499,-525,4014,360
1500,-537,4014,360
1501,-537,4011,309
1502,-642,3978,309
1503,-645,3978,369
1504,-645,3945,399
1505,-642,3945,399
1506,-642,3954,426
1507,-711,3951,426
1508,-747,3951,456
1509,-747,3942,399
1510,-723,3924,399
1511,-723,3924,486
1512,-738,4002,486
1513,-738,4002,510
1514,-738,4038,420
1515,-753,3993,420
1516,-732,3993,396
1517,-732,4041,396
1518,-723,4041,456
1519,-723,4017,381
1520,-717,3954,381
1521,-711,3954,375
1522,-711,3942,426
1523,-735,3942,426
1524,-735,3945,375
1525,-684,4035,375
1526,-684,4035,369
1527,-684,4092,390
1528,-609,4032,390
1529,-609,4032,444
1530,-642,4023,444
1531,-636,4023,381
1532,-636,4038,405
1533,-651,4026,405
1534,-651,4026,351
1535,-654,4014,351
1536,-687,4014,375
1537,-687,4014,339
1538,-705,3975,339
1539,-735,3975,480
1540,-735,3978,480
1541,-738,3978,474
1542,-738,4023,465
1543,-750,4047,465
1544,-765,4047,489
1545,-765,4053,525
1546,-717,4053,525
1547,-717,3996,555
1548,-873,3927,555
1549,-924,3927,594
1550,-924,3918,564
1551,-1080,3828,564
1552,-1080,3828,642
1553,-1050,3765,642
1554,-1197,3765,696
1555,-1197,3813,765
1556,-1086,3867,765
1557,-1086,3867,921
1558,-1206,4098,921
1559,-1137,4098,915
1560,-1137,4317,930
1561,-999,4308,930
1562,-912,4308,1002
1563,-912,4194,1002
1564,-921,4194,1143
1565,-921,4146,1143
1566,-999,4260,1143
1567,-948,4260,1161
1568,-948,4338,1161
1569,-972,4338,1161
1570,-972,4170,1176
1571,-1023,4239,1176
1572,-981,4239,1332
1573,-981,4239,1272
1574,-972,4197,1272
1575,-972,4197,1278
1576,-948,4161,1278
1577,-897,4161,1344
1578,-897,4173,1605
1579,-891,4320,1605
1580,-891,4320,1518
1581,-942,4158,1518
1582,-1047,4158,1608
1583,-1047,4233,1710
1584,-966,4338,1710
1585,-1059,4338,1824
1586,-1059,4389,1824
1587,-1095,4389,1848
1588,-1095,4413,1908
1589,-1221,4329,1908
1590,-1116,4329,2001
1591,-1116,4236,2181
1592,-1275,4236,2181
1593,-1275,4188,2385
1594,-1392,4275,2385
1595,-1539,4275,2355
1596,-1539,4239,2556
1597,-1602,4329,2556
1598,-1602,4329,2598
1599,-1644,4389,2598
1600,-1749,4389,2643
1601,-1749,4488,2598
1602,-1890,4470,2598
1603,-1890,4470,2562
1604,-1797,4389,2562
1605,-1695,4389,2673
1606,-1695,4227,2796
1607,-1722,4158,2796
1608,-1584,4158,2766
1609,-1584,4299,2766
1610,-1521,4299,2772
1611,-1521,4260,2721
1612,-1419,4170,2721
1613,-1596,4170,2913
1614,-1596,4098,2928
1615,-1566,4098,2928
1616,-1566,3915,2949
1617,-1458,3789,2949
1618,-1500,3789,3099
1619,-1500,3801,3147
1620,-1764,3852,3147
1621,-1764,3852,3078
1622,-1773,3990,3078
1623,-1512,3990,2943
1624,-1512,3597,3012
1625,-1218,3540,3012
1626,-1218,3540,3168
1627,-1125,3435,3168
1628,-1155,3435,3285
1629,-1155,3636,3174
1630,-957,3405,3174
1631,-744,3405,3234
1632,-744,2994,3234
1633,-474,2994,3204
1634,-474,3090,3369
1635,-564,2877,3369
1636,-615,2877,3225
1637,-615,2805,3168
1638,-537,2805,3168
1639,-537,2256,3198
1640,-507,2262,3198
1641,-564,2262,3225
1642,-564,2097,3069
1643,-540,2097,3069
1644,-540,1977,2802
1645,-78,1632,2802
1646,-51,1632,2913
1647,-51,1338,2817
1648,108,1173,2817
1649,108,1173,2793
1650,-27,762,2793
1651,-306,762,2652
1652,-306,690,2391
1653,-333,519,2391
1654,-57,519,2205
1655,-57,117,2205
1656,-30,117,2001
1657,-30,-294,1911
1658,-90,-591,1911
1659,60,-591,1836
1660,60,-663,1758
1661,210,-663,1758
1662,210,-708,1674
1663,381,-822,1674
1664,483,-822,1605
1665,483,-939,1527
1666,297,-939,1527
1667,297,-1095,1479
1668,456,-1137,1479
1669,294,-1137,1509
1670,294,-1428,1398
1671,318,-1473,1398
1672,318,-1473,1398
1673,243,-1350,1398
1674,297,-1350,1539
1675,297,-1251,1629
1676,201,-1194,1629
1677,201,-1194,1740
1678,261,-1125,1740
1679,9,-1125,1929
1680,9,-1002,2076
1681,150,-519,2076
1682,75,-519,2376
1683,75,-486,2376
1684,-204,-486,2466
1685,-204,-471,2613
1686,-333,-306,2613
1687,-231,-306,2688
1688,-231,51,2535
1689,72,51,2535
1690,72,429,2607
1691,-249,240,2607
1692,-870,240,2481
1693,-870,114,2550
1694,-729,375,2550
1695,-729,375,2391
1696,-702,924,2391
1697,-615,924,2505
1698,-615,969,2682
1699,-909,891,2682
1700,-909,891,2793
1701,-1044,1038,2793
1702,-945,1038,2616
1703,-945,1617,2541
1704,-891,1950,2541
1705,-1677,1950,2958
1706,-1677,1797,2958
1707,-1920,1797,2928
1708,-1920,1818,2883
1709,-1959,2130,2883
1710,-1614,2130,2667
1711,-1614,2109,2667
1712,-1305,2109,2667
1713,-1305,2580,2994
1714,-1011,2907,2994
1715,-822,2907,2766
1716,-822,3333,2631
1717,-1146,2739,2631
1718,-1146,2739,2550
1719,-1371,3285,2550
1720,-1065,3285,2445
1721,-1065,4062,2532
1722,-1059,4563,2532
1723,-1059,4563,2568
1724,-522,4473,2568
1725,-1029,4473,2832
1726,-1029,3309,2841
1727,-1458,4176,2841
1728,-1386,4176,2490
1729,-1386,4707,2490
1730,-1728,4707,2496
1731,-1728,4878,2922
1732,-1443,4551,2922
1733,-1590,4551,3138
1734,-1590,4521,2928
1735,-1971,4521,2928
1736,-1971,4488,2592
1737,-1491,4767,2592
1738,-1566,4767,2742
1739,-1566,4812,2928
1740,-1266,4812,2928
1741,-1266,4803,3003
1742,-990,5157,3003
1743,-1083,5157,2688
1744,-1083,4854,2472
1745,-783,4659,2472
1746,-783,4659,2271
1747,-1344,4908,2271
1748,-1287,4908,2199
1749,-1287,4821,1995
1750,-1407,4557,1995
1751,-1299,4557,1734
1752,-1299,4308,1734
1753,-1167,4308,1593
1754,-1167,3936,1719
1755,-1041,4008,1719
1756,-1152,4008,1593
1757,-1152,4314,1593
1758,-885,4314,1443
1759,-885,4782,1449
1760,-768,4701,1449
1761,-630,4701,1464
1762,-630,4656,1413
1763,-528,4656,1413
1764,-528,4416,1407
1765,-489,4560,1407
1766,-471,4560,1314
1767,-471,4737,1284
1768,-477,4803,1284
1769,-477,4803,1197
1770,-438,4707,1197
1771,-651,4707,1098
1772,-651,4419,951
1773,-807,4194,951
1774,-807,4194,897
1775,-897,4152,897
1776,-1452,4152,867
1777,-1452,3981,1323
1778,-2403,4380,1323
1779,-2223,4380,1875
1780,-2223,4239,1650
1781,-2004,4239,1650
1782,-2004,4152,1233
1783,-1101,4257,1233
1784,-408,4257,762
1785,-408,4191,243
1786,162,4191,243
1787,162,4209,-123
1788,234,4185,-123
1789,90,4185,-222
1790,90,4095,-348
1791,-231,3972,-348
1792,-231,3972,-432
1793,-522,3894,-432
1794,-771,3894,-357
1795,-771,3759,-327
1796,-801,3828,-327
1797,-801,3828,-147
1798,-816,3951,-147
1799,-603,3951,-87
1800,-603,4116,18
1801,-471,4218,18
1802,-411,4218,99
1803,-411,4191,99
1804,-315,4191,153
1805,-315,4161,138
1806,-387,4194,138
1807,-378,4194,105
1808,-378,4146,60
1809,-405,4146,60
1810,-405,4113,120
1811,-441,4074,120
1812,-561,4074,69
1813,-561,3972,39
1814,-561,4026,39
1815,-561,4026,0
1816,-543,3999,0
1817,-522,3999,-18
1818,-522,4089,-111
1819,-465,4095,-111
1820,-465,4095,-141
1821,-339,4077,-141
1822,-363,4077,-132
1823,-363,4059,-183
1824,-411,4038,-183
1825,-306,4038,-186
1826,-306,4116,-186
1827,-339,4116,-168
1828,-339,4131,-156
1829,-405,4164,-156
1830,-396,4164,-123
1831,-396,4143,-108
1832,-393,4143,-108
1833,-393,4095,-123
1834,-438,4008,-123
1835,-471,4008,-168
1836,-471,4089,-177
1837,-492,4101,-177
1838,-492,4101,-141
1839,-480,4059,-141
1840,-411,4059,-138
1841,-411,4044,-168
1842,-432,4059,-168
1843,-432,4059,-93
1844,-390,4164,-93
1845,-477,4164,-36
1846,-477,4107,-126
1847,-447,4131,-126
1848,-498,4131,-147
1849,-498,4083,-147
1850,-471,4083,-123
1851,-471,4011,-171
1852,-477,4017,-171
1853,-492,4017,-228
1854,-492,4089,-186
1855,-456,4089,-186
1856,-456,4113,-96
1857,-405,4080,-96
1858,-414,4080,-183
1859,-414,4086,-81
1860,-393,4086,-81
1861,-393,4107,-126
1862,-477,4101,-126
1863,-432,4101,-147
1864,-432,4050,-102
1865,-429,4068,-102
1866,-429,4068,-63
1867,-441,4080,-63
1868,-465,4080,-87
1869,-465,4143,-51
1870,-450,4068,-51
1871,-465,4068,-93
1872,-465,4047,-93
1873,-459,4047,-66
1874,-459,4113,-111
1875,-531,4101,-111
1876,-522,4101,-87
1877,-522,4116,-138
1878,-492,4116,-138
1879,-492,4074,-156
1880,-477,4023,-156
1881,-459,4023,-153
1882,-459,4029,-192
1883,-480,4029,-192
1884,-480,4074,-192
1885,-441,4053,-192
1886,-477,4053,-153
1887,-477,4056,-192
1888,-456,4041,-192
1889,-456,4041,-147
1890,-492,4023,-147
1891,-531,4023,-108
1892,-531,4086,-171
1893,-525,4077,-171
1894,-465,4077,-96
1895,-465,4068,-96
1896,-429,4068,-81
1897,-429,4056,-123
1898,-423,4089,-123
1899,-396,4089,-102
1900,-396,4143,-72
1901,-414,4143,-72
1902,-414,4095,-63
1903,-405,4095,-63
1904,-381,4095,-138
1905,-381,4110,-207
1906,-441,4110,-207
1907,-441,4146,-123
1908,-426,4074,-123
1909,-411,4074,-177
1910,-411,3996,-126
1911,-414,4017,-126
1912,-414,4017,-93
1913,-444,4044,-93
1914,-411,4044,-132
1915,-411,4077,-93
1916,-456,4077,-93
1917,-396,4077,-72
1918,-396,4053,-72
1919,-393,4053,-96
1920,-393,4029,-93
1921,-393,4131,-93
1922,-450,4131,-177
1923,-450,4116,-126
1924,-465,4116,-126
1925,-465,4110,-162
1926,-444,4113,-162
1927,-510,4113,-186
1928,-510,4098,-141
1929,-510,4098,-141
1930,-510,4215,-186
1931,-558,4203,-186
1932,-570,4203,-147
1933,-570,4092,-102
1934,-582,4059,-102
1935,-582,4059,-93
1936,-654,3939,-93
1937,-669,3939,-57
1938,-669,3945,-48
1939,-645,3900,-48
1940,-645,3900,-6
1941,-570,3954,-6
1942,-480,3954,60
1943,-480,3933,24
1944,-393,4002,24
1945,-351,4002,54
1946,-351,4098,54
1947,-303,4098,54
1948,-303,4161,30
1949,-249,4179,30
1950,-285,4179,-66
1951,-285,4278,-177
1952,-318,4278,-177
1953,-318,4209,-177
1954,-357,4143,-177
1955,-423,4143,-261
1956,-423,4035,-354
1957,-441,3987,-354
1958,-441,3987,-387
1959,-507,3975,-387
1960,-531,3975,-312
1961,-531,3951,-312
1962,-543,3927,-312
1963,-543,3927,-228
1964,-570,3912,-228
1965,-558,3912,-168
1966,-558,3972,-93
1967,-564,4083,-93
1968,-564,4083,-57
1969,-564,4146,-57
1970,-549,4146,0
1971,-549,4251,-18
1972,-516,4194,-18
1973,-450,4194,-27
1974,-450,4203,-63
1975,-495,4203,-63
1976,-495,4200,-81
1977,-429,4149,-81
1978,-483,4149,-213
1979,-483,4104,-246
1980,-543,3993,-246
1981,-543,3993,-213
1982,-552,3957,-213
1983,-552,3957,-267
1984,-552,3963,-267
1985,-564,3933,-267
1986,-564,3933,-252
1987,-516,3945,-252
1988,-516,3945,-246
1989,-516,4044,-207
1990,-477,4065,-207
1991,-534,4065,-87
1992,-534,4113,-87
1993,-540,4113,-102
1994,-540,4131,-72
1995,-534,4131,-72
1996,-495,4131,-132
1997,-495,4221,-186
1998,-516,4221,-186
1999,-516,4230,-198
2000,-483,4158,-198
2001,-432,4158,-201
2002,-432,4056,-261
2003,-447,4041,-261
2004,-447,4041,-231
2005,-474,4038,-231
2006,-543,4038,-246
2007,-543,4110,-156
2008,-522,4098,-156
2009,-522,4098,-168
2010,-471,4077,-168
2011,-474,4077,-162
2012,-474,4131,-171
2013,-450,4155,-171
2014,-465,4155,-138
2015,-465,4191,-138
2016,-477,4191,-231
2017,-477,4155,-198
2018,-525,4104,-198
2019,-564,4104,-273
2020,-564,4017,-327
2021,-627,4017,-327
2022,-627,3945,-282
2023,-645,3972,-282
2024,-600,3972,-303
2025,-600,3948,-252
2026,-549,3972,-252
2027,-549,3972,-333
2028,-516,3972,-333
2029,-471,3972,-192
2030,-471,3978,-246
2031,-498,3963,-246
2032,-498,3963,-222
2033,-459,4008,-222
2034,-480,4008,-198
2035,-480,4113,-222
2036,-456,4230,-222
2037,-372,4230,-231
2038,-372,4236,-231
2039,-333,4236,-177
2040,-333,4245,-162
2041,-270,4269,-162
2042,-318,4269,-72
2043,-318,4230,-126
2044,-336,4230,-126
2045,-336,4212,-123
2046,-378,4158,-123
2047,-414,4158,-156
2048,-414,4062,-228
2049,-438,4062,-228
2050,-438,3978,-177
2051,-495,3972,-177
2052,-498,3972,-258
2053,-498,3945,-267
2054,-501,3984,-267
2055,-501,3984,-192
2056,-531,3960,-192
2057,-531,3960,-201
2058,-531,3972,-207
2059,-567,4005,-207
2060,-567,4005,-183
2061,-582,4038,-183
2062,-534,4038,-252
2063,-534,4065,-228
2064,-564,4029,-228
2065,-477,4029,-237
2066,-477,4062,-252
2067,-450,4062,-252
2068,-450,4065,-237
2069,-507,4107,-237
2070,-483,4107,-237
2071,-483,4083,-156
2072,-456,4083,-156
2073,-456,4140,-177
2074,-381,4137,-177
2075,-306,4137,-153
2076,-306,4197,-123
2077,-312,4245,-123
2078,-312,4245,-192
2079,-276,4179,-192
2080,-252,4179,-102
2081,-252,4179,-111
2082,-306,4167,-111
2083,-336,4167,-141
2084,-336,4203,-141
2085,-333,4203,-171
2086,-333,4182,-207
2087,-378,4068,-207
2088,-387,4068,-282
2089,-387,4023,-282
2090,-456,4023,-282
2091,-456,3978,-303
2092,-495,4002,-303
2093,-510,4002,-243
2094,-510,3963,-252
2095,-531,3963,-252
2096,-531,4035,-201
2097,-558,4056,-201
2098,-579,4056,-222
2099,-579,4068,-228
2100,-603,4050,-228
2101,-603,4050,-201
2102,-597,4023,-201
2103,-576,4023,-132
2104,-576,4026,-192
2105,-603,3993,-192
2106,-603,3993,-261
2107,-621,4056,-261
2108,-603,4056,-237
2109,-603,4086,-171
2110,-561,4125,-171
2111,-522,4125,-183
2112,-522,4086,-183
2113,-531,4086,-156
2114,-531,4056,-171
2115,-534,4056,-171
2116,-513,4056,-63
2117,-513,3987,-72
2118,-471,3987,-72
2119,-471,4137,-72
2120,-471,4140,-72
2121,-456,4140,-48
2122,-456,4152,-72
2123,-411,4152,-72
2124,-411,4095,-147
2125,-438,4017,-147
2126,-459,4017,-177
2127,-459,3999,-177
2128,-513,4002,-177
2129,-513,4002,-237
2130,-492,4023,-237
2131,-546,4023,-246
2132,-546,3996,-267
2133,-546,3987,-267
2134,-543,3987,-276
2135,-543,3984,-276
2136,-585,3984,-273
2137,-585,3951,-237
2138,-576,3903,-237
2139,-618,3903,-258
2140,-618,3948,-273
2141,-639,3948,-273
2142,-639,4032,-201
2143,-615,4035,-201
2144,-600,4035,-162
2145,-600,4101,-138
2146,-552,4077,-138
2147,-552,4077,-156
2148,-498,4092,-156
2149,-477,4092,-237
2150,-477,4104,-231
2151,-471,4053,-231
2152,-471,4053,-291
2153,-426,3981,-291
2154,-372,3981,-186
2155,-372,4407,-138
2156,-510,4485,-138
2157,-843,4485,-21
2158,-843,4263,-21
2159,-1146,4263,-87
2160,-1146,4032,405
2161,-1512,4344,405
2162,-1548,4344,396
2163,-1548,4512,444
2164,-1506,4512,444
2165,-1506,4353,855
2166,-1083,4257,855
2167,-873,4257,1473
2168,-873,4401,1989
2169,-666,4560,1989
2170,-666,4560,2316
2171,-681,4866,2316
2172,-555,4866,2382
2173,-555,5481,2346
2174,-447,5931,2346
2175,-447,5931,2070
2176,-267,5835,2070
2177,-219,5835,1935
2178,-219,5439,1803
2179,-240,5229,1803
2180,-402,5229,1770
2181,-402,5169,1770
2182,-339,5169,1698
2183,-339,5100,1548
2184,-546,5097,1548
2185,-537,5097,1689
2186,-537,4953,1803
2187,-681,4953,1803
2188,-681,5283,1809
2189,-525,5178,1809
2190,-546,5178,1890
2191,-546,5160,1950
2192,-462,5160,1950
2193,-462,4941,2064
2194,-390,5079,2064
2195,-252,5079,2106
2196,-252,5277,2181
2197,-264,4911,2181
2198,-264,4911,2229
2199,-318,4680,2229
2200,-402,4680,2442
2201,-402,4584,2562
2202,-522,4752,2562
2203,-357,4752,2631
2204,-357,4689,2631
2205,-378,4689,2637
2206,-378,4518,2583
2207,-504,4389,2583
2208,-693,4389,2622
2209,-693,4446,2490
2210,-441,4446,2490
2211,-441,4221,2631
2212,-573,4041,2631
2213,-420,4041,2577
2214,-420,3555,2673
2215,-426,3555,2673
2216,-426,3552,2811
2217,-162,3567,2811
2218,357,3567,2877
2219,357,3525,2841
2220,150,3063,2841
2221,150,3063,2658
2222,27,2883,2658
2223,-108,2883,2571
2224,-108,2535,2535
2225,-447,2238,2535
2226,-615,2238,2445
2227,-615,1914,2445
2228,-750,1914,2271
2229,-750,1527,2250
2230,-699,1185,2250
2231,-567,1185,2124
2232,-567,1017,2184
2233,-339,1017,2184
2234,-339,738,1959
2235,-183,528,1959
2236,-24,528,1905
2237,-24,303,1785
2238,183,450,1785
2239,183,450,1668
2240,138,-24,1668
2241,117,-24,1866
2242,117,-216,1935
2243,228,-171,1935
2244,228,-171,2064
2245,234,-183,2064
2246,384,-183,1950
2247,384,-249,1974
2248,186,-480,1974
2249,243,-480,1965
2250,243,-729,1980
2251,267,-729,1980
2252,267,-702,1986
2253,495,-516,1986
2254,576,-516,1956
2255,576,-783,1944
2256,339,-783,1944
2257,339,-840,1950
2258,363,-588,1950
2259,432,-588,1920
2260,432,-459,2034
2261,228,-627,2034
2262,228,-627,2154
2263,261,-408,2154
2264,132,-408,2247
2265,132,-375,2250
2266,249,12,2250
2267,405,12,2415
2268,405,84,2415
2269,570,84,2592
2270,570,435,2631
2271,471,516,2631
2272,297,516,2376
2273,297,816,2340
2274,213,816,2340
2275,213,780,2475
2276,285,1086,2475
2277,30,1086,2592
2278,30,963,2643
2279,-213,963,2643
2280,-213,1038,2511
2281,-258,1647,2511
2282,-348,1647,2601
2283,-348,1713,2673
2284,-426,1869,2673
2285,-426,1869,2958
2286,-717,1764,2958
2287,-1011,1764,2811
2288,-1011,1605,2982
2289,-1116,2541,2982
2290,-855,2541,2853
2291,-855,2931,2853
2292,-852,2931,2982
2293,-852,2925,2889
2294,-852,2565,2889
2295,-1017,2565,2706
2296,-1017,2736,2385
2297,-1092,2736,2385
2298,-1092,4071,2295
2299,-342,3825,2295
2300,-201,3825,2949
2301,-201,3390,3144
2302,-774,3390,3144
2303,-774,3684,2748
2304,-948,3696,2748
2305,-1242,3696,2628
2306,-1242,4425,2703
2307,-1134,4971,2703
2308,-1134,4971,2988
2309,-1080,4701,2988
2310,-975,4701,2718
2311,-975,4188,2772
2312,-1104,3834,2772
2313,-1362,3834,2481
2314,-1362,4521,2481
2315,-1401,4521,2541
2316,-1401,4902,2481
2317,-1455,5031,2481
2318,-1233,5031,2436
2319,-1233,4203,2535
2320,-1350,4203,2535
2321,-1350,4272,2547
2322,-1230,4599,2547
2323,-1044,4599,2535
2324,-1044,5010,2430
2325,-999,5211,2430
2326,-999,5211,2091
2327,-867,4947,2091
2328,-888,4947,2139
2329,-888,4728,2016
2330,-717,4653,2016
2331,-717,4653,1839
2332,-702,4695,1839
2333,-738,4695,1482
2334,-738,4668,1299
2335,-699,4233,1299
2336,-498,4233,1383
2337,-498,4242,1383
2338,-510,4242,1299
2339,-510,4314,1161
2340,-300,4572,1161
2341,-402,4572,1086
2342,-402,4578,1167
2343,-339,4578,1167
2344,-339,4407,1242
2345,-873,4437,1242
2346,-1233,4437,1128
2347,-1233,4359,1002
2348,-1308,4359,1002
2349,-1308,4458,1026
2350,-1269,4431,1026
2351,-1125,4431,1041
2352,-1125,4323,906
2353,-798,4212,906
2354,-798,4212,885
2355,-549,4314,885
2356,-288,4314,777
2357,-288,4476,720
2358,-252,4566,720
2359,-861,4566,867
2360,-861,4464,867
2361,-1350,4464,1572
2362,-1350,4566,1860
2363,-1242,4563,1860
2364,-774,4563,1665
2365,-774,4644,1284
2366,-81,4644,1284
2367,-81,4527,780
2368,414,4524,780
2369,678,4524,198
2370,678,4224,-78
2371,519,4224,-78
2372,519,3936,-291
2373,240,3804,-291
2374,156,3804,-453
2375,156,3846,-519
2376,-27,3921,-519
2377,-27,3921,-603
2378,-9,4077,-603
2379,-15,4077,-642
2380,-15,4149,-684
2381,-99,4065,-684
2382,-99,4065,-573
2383,-252,4029,-573
2384,-462,4029,-453
2385,-462,4023,-327
2386,-501,4077,-327
2387,-411,4077,-162
2388,-411,3990,-183
2389,-216,3990,-183
2390,-216,3837,-156
2391,-93,3843,-156
2392,-189,3843,-261
2393,-189,3900,-213
2394,-300,3900,-213
2395,-300,3999,-243
2396,-528,4086,-243
2397,-597,4086,-237
2398,-597,4107,-267
2399,-516,4047,-267
2400,-516,4047,-222
2401,-360,4221,-222
2402,-237,4221,-372
2403,-237,4419,-534
2404,-183,4491,-534
2405,-183,4491,-618
2406,-111,4407,-618
2407,-87,4407,-663
2408,-87,4266,-765
2409,-84,4383,-765
2410,-138,4383,-774
2411,-138,4245,-774
2412,-12,4245,-795
2413,-12,4362,-759
2414,-120,4404,-759
2415,-63,4404,-669
2416,-63,4191,-582
2417,-138,4191,-582
2418,-138,4029,-552
2419,-288,3729,-552
2420,-369,3729,-462
2421,-369,3693,-333
2422,-375,3693,-333
2423,-375,3735,-303
2424,-354,3960,-303
2425,-387,3960,-201
2426,-387,4254,-198
2427,-213,4398,-198
2428,-213,4398,-162
2429,-207,4410,-162
2430,-240,4410,-87
2431,-240,4341,-72
2432,-447,4323,-72
2433,-447,4323,-93
2434,-597,4209,-93
2435,-732,4209,-48
2436,-732,4077,30
2437,-762,3927,30
2438,-669,3927,138
2439,-669,3882,270
2440,-660,3882,270
2441,-660,4005,315
2442,-612,4041,315
2443,-540,4041,321
2444,-540,4062,279
2445,-507,4062,279
2446,-507,3984,183
2447,-555,3963,183
2448,-444,3963,105
2449,-444,4050,9
2450,-447,4041,9
2451,-447,4041,-81
2452,-441,3909,-81
2453,-432,3909,-108
2454,-432,3831,-108
2455,-480,3879,-108
2456,-480,3879,-96
2457,-495,3966,-96
2458,-474,3966,0
2459,-474,3972,33
2460,-456,4026,33
2461,-435,4026,69
2462,-435,3975,69
2463,-462,3975,105
2464,-462,3951,135
2465,-438,4095,135
2466,-366,4095,24
2467,-366,4146,-21
2468,-219,4146,-21
2469,-219,4179,60
2470,-177,4239,60
2471,-135,4239,-51
2472,-135,4218,9
2473,-234,4245,9
2474,-234,4245,99
2475,-270,4134,99
2476,-390,4134,165
2477,-390,4101,183
2478,-525,4095,183
2479,-525,4095,228
2480,-585,4134,228
2481,-645,4134,285
2482,-645,4119,324
2483,-699,4101,324
2484,-642,4101,288
2485,-642,4098,288
2486,-615,4098,225
2487,-615,4023,99
2488,-564,3996,99
2489,-576,3996,24
2490,-576,3954,-66
2491,-462,3954,-66
2492,-462,3882,-108
2493,-393,3909,-108
2494,-429,3909,-153
2495,-429,3903,-261
2496,-411,4002,-261
2497,-411,4002,-258
2498,-498,3996,-258
2499,-414,3996,-282
2500,-414,3945,-171
2501,-477,3954,-171
2502,-477,3954,-141
2503,-426,4044,-141
2504,-444,4044,-51
2505,-444,4131,78
2506,-429,4149,78
2507,-504,4149,210
2508,-504,4161,210
2509,-516,4161,270
2510,-516,4206,330
2511,-582,4206,330
2512,-474,4206,303
2513,-474,4227,279
2514,-396,4227,279
2515,-396,4092,114
2516,-357,4032,114
2517,-327,4032,15
2518,-327,3936,-132
2519,-378,3936,-132
2520,-378,3882,-132
2521,-396,3927,-132
2522,-522,3927,-183
2523,-522,3975,-213
2524,-513,4041,-213
2525,-513,4041,-216
2526,-543,4044,-216
2527,-483,4044,-162
2528,-483,4077,-222
2529,-438,4113,-222
2530,-444,4113,-216
2531,-444,4098,-216
2532,-408,4098,-168
2533,-408,4125,-132
2534,-402,4110,-132
2535,-459,4110,-147
2536,-459,4077,-48
2537,-540,4077,-48
2538,-540,4146,-42
2539,-549,4098,-42
2540,-483,4098,-72
2541,-483,4101,24
2542,-354,4101,24
2543,-354,4077,-27
2544,-303,4137,-27
2545,-309,4137,-12
2546,-309,4149,-42
2547,-357,4188,-42
2548,-357,4188,15
2549,-372,4158,15
2550,-459,4158,-21
2551,-459,4197,-36
2552,-447,4155,-36
2553,-495,4155,-78
2554,-495,4182,-78
2555,-513,4182,-207
2556,-513,4119,-192
2557,-510,4080,-192
2558,-438,4080,-186
2559,-438,4029,-228
2560,-456,4029,-228
2561,-456,4023,-216
2562,-441,4032,-216
2563,-483,4032,-246
2564,-483,4032,-147
2565,-480,4032,-147
2566,-480,4050,-153
2567,-513,4056,-153
2568,-489,4056,-168
2569,-489,3987,-141
2570,-462,4035,-141
2571,-462,4035,-156
2572,-462,4050,-156
2573,-438,4050,-213
2574,-438,4077,-228
2575,-438,4110,-228
2576,-447,4110,-207
2577,-447,4194,-207
2578,-444,4194,-243
2579,-444,4212,-186
2580,-396,4149,-186
2581,-372,4149,-162
2582,-372,4101,-162
2583,-342,4101,-201
2584,-342,4104,-153
2585,-396,4137,-153
2586,-426,4137,-138
2587,-426,4083,-198
2588,-513,4083,-198
2589,-513,4080,-228
2590,-522,4077,-228
2591,-456,4077,-228
2592,-456,4029,-246
2593,-411,4038,-246
2594,-411,4038,-177
2595,-450,4017,-177
2596,-402,4017,-102
2597,-402,4056,-207
2598,-375,4119,-207
2599,-375,4119,-162
2600,-432,4128,-162
2601,-387,4128,-186
2602,-387,4146,-207
2603,-414,4128,-207
2604,-441,4128,-186
2605,-441,4053,-186
2606,-429,4053,-291
2607,-429,4038,-213
2608,-510,4089,-213
2609,-471,4089,-348
2610,-471,4119,-357
2611,-459,4119,-357
2612,-459,4107,-312
2613,-345,4128,-312
2614,-360,4128,-207
2615,-360,4170,-147
2616,-351,4176,-147
2617,-351,4176,-96
2618,-516,4155,-96
2619,-513,4155,-72
2620,-513,4104,-78
2621,-558,4029,-78
2622,-558,4029,-171
2623,-552,3999,-171
2624,-522,3999,-111
2625,-522,3948,-213
2626,-507,3966,-213
2627,-492,3966,-327
2628,-492,3960,-312
2629,-441,3960,-312
2630,-441,4017,-333
2631,-456,4050,-333
2632,-456,4050,-252
2633,-456,4029,-243
2634,-450,4029,-243
2635,-450,4083,-273
2636,-411,4098,-273
2637,-408,4098,-228
2638,-408,4098,-222
2639,-387,4107,-222
2640,-387,4107,-261
2641,-420,4179,-261
2642,-462,4179,-252
2643,-462,4206,-222
2644,-336,4203,-222
2645,-336,4203,-156
2646,-213,4245,-156
2647,-153,4245,-87
2648,-153,4356,54
2649,-216,4611,54
2650,-306,4611,-21
2651,-306,4374,-21
2652,-402,4374,-108
2653,-402,4146,-192
2654,-585,3891,-192
2655,-645,3891,-291
2656,-645,3687,-369
2657,-699,3687,-369
2658,-699,3705,-432
2659,-690,3828,-432
2660,-615,3828,-513
2661,-615,3792,-489
2662,-495,3792,-489
2663,-495,3828,-507
2664,-381,3852,-507
2665,-369,3852,-414
2666,-369,3957,-273
2667,-420,4002,-273
2668,-420,4002,-108
2669,-510,4038,-108
2670,-531,4038,-21
2671,-531,4089,69
2672,-471,4113,69
2673,-471,4113,90
2674,-333,4242,90
2675,-234,4242,75
2676,-234,4239,39
2677,-189,4236,39
2678,-120,4236,9
2679,-120,4218,9
2680,-168,4218,-21
2681,-168,4158,48
2682,-306,4290,48
2683,-396,4290,54
2684,-396,4299,108
2685,-507,4299,108
2686,-507,4278,324
2687,-447,4227,324
2688,-636,4227,510
2689,-636,4080,696
2690,-738,4080,696
2691,-738,4257,987
2692,-642,4491,987
2693,-507,4491,1248
2694,-507,4833,1317
2695,-663,4986,1317
2696,-663,4986,1257
2697,-567,5013,1257
2698,-378,5013,1398
2699,-378,4935,1407
2700,-201,4851,1407
2701,-201,4851,1572
2702,-27,4770,1572
2703,-45,4770,1542
2704,-45,4863,1443
2705,144,5049,1443
2706,333,5049,1449
2707,333,5031,1449
2708,303,5031,1497
2709,303,5112,1443
2710,63,4983,1443
2711,90,4983,1419
2712,90,4923,1479
2713,36,4923,1479
2714,36,4881,1683
2715,111,5049,1683
2716,72,5049,1608
2717,72,4761,1584
2718,-189,4761,1584
2719,-189,4686,1719
2720,-246,4680,1719
2721,-267,4680,1623
2722,-267,4686,1698
2723,-132,4737,1698
2724,-132,4737,1734
2725,-12,4518,1734
2726,-57,4518,1839
2727,-57,4383,1959
2728,-9,4449,1959
2729,-9,4449,2001
2730,-108,4431,2001
2731,123,4431,1929
2732,123,4353,2019
2733,162,4173,2019
2734,-93,4173,2079
2735,-93,3888,2079
2736,-15,3888,2235
2737,-15,3960,2226
2738,72,3987,2226
2739,303,3987,2352
2740,303,3714,2490
2741,3,3714,2490
2742,3,3504,2391
2743,105,3357,2391
2744,297,3357,2475
2745,297,3267,2658
2746,465,3387,2658
2747,465,3387,2751
2748,597,3309,2751
2749,420,3309,2913
2750,420,3174,2973
2751,351,3156,2973
2752,351,3156,3003
2753,384,3132,3003
2754,438,3132,3138
2755,438,3054,3093
2756,672,3177,3093
2757,492,3177,3117
2758,492,2829,3117
2759,525,2829,3132
2760,525,2835,3174
2761,318,2616,3174
2762,363,2616,3078
2763,363,2361,3054
2764,255,2361,3054
2765,255,2304,3069
2766,348,2109,3069
2767,234,2109,3087
2768,234,1914,2889
2769,564,1914,2889
2770,564,1797,2673
2771,714,1536,2673
2772,816,1536,2421
2773,816,1206,2265
2774,879,972,2265
2775,879,972,2046
2776,951,621,2046
2777,828,621,1926
2778,828,378,1764
2779,804,195,1764
2780,768,195,1659
2781,768,42,1659
2782,672,42,1620
2783,672,-36,1584
2784,768,-75,1584
2785,819,-75,1608
2786,819,-318,1563
2787,579,-318,1563
2788,579,-468,1530
2789,513,-474,1530
2790,645,-474,1569
2791,645,-471,1518
2792,672,-471,1518
2793,672,-498,1548
2794,675,-375,1548
2795,423,-375,1629
2796,423,-369,1545
2797,246,-510,1545
2798,246,-510,1698
2799,279,-354,1698
2800,432,-354,1881
2801,432,-102,1956
2802,699,333,1956
2803,699,333,2109
2804,837,816,2109
2805,762,816,2184
2806,762,771,2367
2807,747,1005,2367
2808,519,1005,2643
2809,519,1023,2643
2810,162,1023,2571
2811,162,1440,2556
2812,21,1554,2556
2813,-132,1554,2853
2814,-132,1608,2862
2815,-288,1608,2862
2816,-288,1803,2682
2817,-489,2070,2682
2818,-459,2070,2682
2819,-459,2178,2817
2820,-471,2457,2817
2821,-471,2457,2922
2822,-342,2574,2922
2823,-366,2574,2667
2824,-366,2673,2382
2825,-60,3009,2382
2826,-60,3009,2583
2827,9,3072,2583
2828,228,3072,2541
2829,228,3357,2571
2830,-114,3474,2571
2831,-60,3474,1974
2832,-60,3825,1974
2833,-96,3825,2445
2834,-96,3135,2427
2835,-438,3735,2427
2836,-336,3735,2340
2837,-336,4113,2256
2838,-351,4113,2256
2839,-351,4065,2160
2840,-660,4029,2160
2841,-849,4029,2391
2842,-849,4416,2250
2843,-771,4677,2250
2844,-771,4677,1980
2845,-684,4827,1980
2846,-675,4827,1950
2847,-675,4242,2421
2848,-789,4242,2421
2849,-789,4242,2526
2850,-801,4827,2526
2851,-912,4827,2451
2852,-912,5106,2316
2853,-702,5280,2316
2854,-930,5280,2106
2855,-930,4953,2106
2856,-843,4953,2049
2857,-843,5028,1764
2858,-720,4986,1764
2859,-630,4986,1740
2860,-630,5025,1578
2861,-531,5025,1578
2862,-531,4995,1743
2863,-615,4518,1743
2864,-786,4518,1665
2865,-786,4857,1569
2866,-507,4857,1569
2867,-507,4974,1452
2868,-333,5103,1452
2869,159,5103,1518
2870,159,5121,1839
2871,111,4623,1839
2872,111,4623,1908
2873,-789,4842,1908
2874,-744,4842,1848
2875,-744,4986,1638
2876,-870,5055,1638
2877,-798,5055,1542
2878,-798,4926,1542
2879,-612,4926,1464
2880,-612,4665,1398
2881,-474,4539,1398
2882,-1065,4539,1314
2883,-1065,4410,2169
2884,-2256,4410,2169
2885,-2256,4974,2691
2886,-2046,4623,2691
2887,-1608,4623,2286
2888,-1608,4455,1713
2889,-576,4455,1713
2890,-576,4311,1263
2891,24,3978,1263
2892,315,3978,579
2893,315,3903,120
2894,255,3849,120
2895,255,3849,-246
2896,-114,3840,-246
2897,-273,3840,-408
2898,-273,3873,-519
2899,-414,3798,-519
2900,-582,3798,-558
2901,-582,3732,-558
2902,-561,3732,-507
2903,-561,3804,-438
2904,-558,3900,-438
2905,-492,3900,-378
2906,-492,3999,-429
2907,-495,3999,-429
2908,-495,4038,-339
2909,-483,3999,-339
2910,-489,3999,-192
2911,-489,3993,-78
2912,-492,3993,-78
2913,-492,4131,15
2914,-465,4278,15
2915,-429,4278,75
2916,-429,4335,99
2917,-384,4323,99
2918,-384,4323,198
2919,-273,4317,198
2920,-198,4317,213
2921,-198,4287,123
2922,-213,4158,123
2923,-306,4158,114
2924,-306,4089,114
2925,-351,4089,-18
2926,-351,4002,-72
2927,-390,4044,-72
2928,-291,4044,-108
2929,-291,4023,-81
2930,-339,4023,-81
2931,-339,4080,-201
2932,-312,4125,-201
2933,-420,4125,-216
2934,-420,4059,-192
2935,-345,4059,-192
2936,-345,4086,-192
2937,-381,4113,-192
2938,-381,4113,-171
2939,-381,4101,-147
2940,-387,4134,-147
2941,-387,4134,-246
2942,-414,4101,-246
2943,-345,4101,-288
2944,-345,4161,-213
2945,-291,4188,-213
2946,-231,4188,-261
2947,-231,4272,-261
2948,-174,4272,-213
2949,-174,4266,-216
2950,-198,4257,-216
2951,-273,4257,-243
2952,-273,4254,-228
2953,-324,4254,-228
2954,-324,4137,-177
2955,-408,4080,-177
2956,-543,4080,-186
2957,-543,4041,-177
2958,-507,4041,-177
2959,-507,4068,-132
2960,-531,3990,-132
2961,-471,3990,-237
2962,-471,3996,-138
2963,-426,3960,-138
2964,-426,3960,-126
2965,-492,3975,-126
2966,-396,3975,-171
2967,-396,3951,-147
2968,-393,4011,-147
2969,-408,4011,-198
2970,-408,4011,-198
2971,-432,4011,-168
2972,-432,3999,-213
2973,-444,4011,-213
2974,-438,4011,-282
2975,-438,4035,-306
2976,-444,4035,-306
2977,-444,4080,-213
2978,-393,4044,-213
2979,-438,4044,-258
2980,-438,4095,-306
2981,-378,4119,-306
2982,-378,4119,-267
2983,-357,4170,-267
2984,-372,4170,-201
2985,-372,4134,-237
2986,-429,4143,-237
2987,-429,4143,-186
2988,-516,4104,-186
2989,-546,4104,-216
2990,-546,4098,-186
2991,-579,4044,-186
2992,-549,4044,-117
2993,-549,3987,-117
2994,-552,3987,-198
2995,-552,3987,-213
2996,-510,3948,-213
2997,-525,3948,-168
2998,-525,4032,-186
2999,-558,4032,-186
3000,-558,4005,-207
3001,-516,4032,-207
3002,-534,4032,-141
3003,-534,4050,-162
3004,-516,4050,-162
3005,-516,4047,-213
3006,-507,4125,-213
3007,-495,4125,-243
3008,-495,4140,-267
3009,-450,4152,-267
3010,-450,4152,-228
3011,-432,4134,-228
3012,-423,4134,-273
3013,-423,4086,-291
3014,-462,4014,-291
3015,-513,4014,-276
3016,-513,4026,-276
3017,-549,4026,-318
3018,-549,4011,-258
3019,-513,4005,-258
3020,-546,4005,-303
3021,-546,4053,-282
3022,-570,4053,-282
3023,-570,3990,-318
3024,-546,4014,-318
3025,-543,4014,-291
3026,-543,4044,-186
3027,-525,4080,-186
3028,-525,4080,-147
3029,-522,4086,-147
3030,-465,4086,-96
3031,-465,4128,-171
3032,-441,4140,-171
3033,-441,4140,-132
3034,-414,4182,-132
3035,-396,4182,-213
3036,-396,4113,-126
3037,-324,4143,-126
3038,-378,4143,-216
3039,-378,4113,-216
3040,-294,4113,-243
3041,-294,4110,-321
3042,-324,4152,-321
3043,-300,4152,-354
3044,-300,4155,-318
3045,-309,4155,-318
3046,-309,4131,-297
3047,-336,4065,-297
3048,-339,4065,-342
3049,-339,4083,-306
3050,-345,4062,-306
3051,-345,4062,-267
3052,-441,4125,-267
3053,-477,4125,-261
3054,-477,4089,-228
3055,-483,4080,-228
3056,-483,4080,-273
3057,-561,4026,-273
3058,-585,4026,-213
3059,-585,4089,-312
3060,-630,3999,-312
3061,-651,3999,-327
3062,-651,4023,-327
3063,-663,4023,-312
3064,-663,3975,-252
3065,-654,4023,-252
3066,-639,4023,-333
3067,-639,4053,-303
3068,-636,4053,-303
3069,-636,4014,-318
3070,-618,3984,-318
3071,-645,3984,-369
3072,-645,3936,-369
3073,-600,4008,-369
3074,-600,4008,-417
3075,-558,4068,-417
3076,-531,4068,-378
3077,-531,4026,-417
3078,-459,4092,-417
3079,-471,4092,-357
3080,-471,4161,-357
3081,-411,4161,-273
3082,-411,4242,-207
3083,-357,4185,-207
3084,-345,4185,-246
3085,-345,4143,-153
3086,-363,4143,-153
3087,-363,4251,-192
3088,-423,4233,-192
3089,-471,4233,-153
3090,-471,4218,-216
3091,-429,4218,-216
3092,-429,4134,-222
3093,-459,4029,-222
3094,-474,4029,-339
3095,-474,3993,-357
3096,-450,4029,-357
3097,-450,4029,-348
3098,-492,4002,-348
3099,-471,4002,-447
3100,-471,3987,-408
3101,-522,3990,-408
3102,-576,3990,-489
3103,-576,3945,-489
3104,-621,3945,-453
3105,-621,3963,-438
3106,-663,3966,-438
3107,-696,3966,-444
3108,-696,3921,-459
3109,-636,3921,-459
3110,-636,3957,-423
3111,-522,3993,-423
3112,-480,3993,-393
3113,-480,4086,-354
3114,-444,4086,-354
3115,-444,4089,-261
3116,-363,4143,-261
3117,-381,4143,-243
3118,-381,4191,-177
3119,-414,4185,-177
3120,-414,4185,-141
3121,-450,4218,-141
3122,-513,4218,-156
3123,-513,4164,-243
3124,-570,4158,-243
3125,-546,4158,-306
3126,-546,4110,-306
3127,-540,4110,-318
3128,-540,4002,-378
3129,-459,3954,-378
3130,-498,3954,-462
3131,-498,3975,-429
3132,-489,3975,-429
3133,-489,3975,-474
3134,-474,3978,-474
3135,-450,3978,-417
3136,-450,4044,-384
3137,-498,4044,-384
3138,-498,4101,-348
3139,-525,4059,-348
3140,-507,4059,-378
3141,-507,4053,-339
3142,-456,4032,-339
3143,-456,4032,-348
3144,-408,4059,-348
3145,-372,4059,-417
3146,-372,4044,-429
3147,-378,4170,-429
3148,-378,4170,-387
3149,-354,4200,-387
3150,-324,4200,-327
3151,-324,4323,-318
3152,-318,4272,-318
3153,-459,4272,-138
3154,-459,4182,-138
3155,-393,4182,84
3156,-393,4341,384
3157,-783,4116,384
3158,-813,4116,405
3159,-813,4452,525
3160,-948,4452,525
3161,-948,4320,756
3162,-579,4167,756
3163,-408,4167,1212
3164,-408,4329,1650
3165,-234,4329,1650
3166,-234,4740,1956
3167,-234,5256,1956
3168,-198,5256,1965
3169,-198,5391,2154
3170,-351,5400,2154
3171,-351,5400,2175
3172,-234,5478,2175
3173,-339,5478,2262
3174,-339,5418,2115
3175,-285,5415,2115
3176,-288,5415,2031
3177,-288,5373,2031
3178,-471,5373,1956
3179,-471,5271,1839
3180,-513,5358,1839
3181,-435,5358,1755
3182,-435,5289,1695
3183,-510,5289,1695
3184,-510,5208,1839
3185,-387,5469,1839
3186,-762,5469,1869
3187,-762,5493,1824
3188,-858,5493,1824
3189,-858,5166,1803
3190,-441,5019,1803
3191,-201,5019,2139
3192,-201,5133,2535
3193,-159,5520,2535
3194,-159,5520,2397
3195,-528,5313,2397
3196,-696,5313,2466
3197,-696,5457,2445
3198,-666,5115,2445
3199,-666,5115,2292
3200,-489,5088,2292
3201,-270,5088,2385
3202,-270,4761,2502
3203,-627,4521,2502
3204,-423,4521,2292
3205,-423,4599,2292
3206,-354,4599,2079
3207,-354,4164,2055
3208,174,4059,2055
3209,90,4059,2139
3210,90,3861,2136
3211,195,3861,2136
3212,195,3504,1926
3213,177,3228,1926
3214,435,3228,1758
3215,435,2973,1926
3216,561,2973,1926
3217,561,2775,2040
3218,444,2586,2040
3219,540,2586,2016
3220,540,2211,2145
3221,546,1830,2145
3222,546,1830,2256
3223,315,1719,2256
3224,405,1719,2121
3225,405,1689,2205
3226,555,1158,2205
3227,420,1158,2049
3228,420,924,2049
3229,489,924,2055
3230,489,753,2070
3231,576,633,2070
3232,459,633,2079
3233,459,297,2091
3234,333,297,2091
3235,333,42,1944
3236,375,135,1944
3237,573,135,1926
3238,573,-30,1821
3239,591,-30,1821
3240,591,-183,1674
3241,450,-465,1674
3242,405,-465,1644
3243,405,-738,1527
3244,444,-567,1527
3245,444,-567,1413
3246,147,-540,1413
3247,141,-540,1086
3248,141,-495,1026
3249,105,-735,1026
3250,105,-735,1176
3251,96,-687,1176
3252,-9,-687,1227
3253,-9,-642,1284
3254,288,-657,1284
3255,735,-657,1308
3256,735,75,1527
3257,486,75,1527
3258,486,225,1557
3259,219,537,1557
3260,90,537,1845
3261,90,504,1893
3262,264,504,1893
3263,264,975,2100
3264,-129,1209,2100
3265,-267,1209,2256
3266,-267,1503,2445
3267,-135,1635,2445
3268,-135,1635,2721
3269,78,1938,2721
3270,-111,1938,2712
3271,-111,2274,2907
3272,-162,2559,2907
3273,48,2559,2973
3274,48,3036,2973
3275,183,3036,3213
3276,183,3123,3102
3277,-57,2937,3102
3278,-774,2937,3279
3279,-774,2859,3174
3280,-945,2859,3174
3281,-945,3225,3009
3282,-606,3825,3009
3283,-99,3825,2838
3284,-99,3603,3570
3285,-27,3603,3570
3286,-27,3318,3339
3287,-687,3792,3339
3288,-681,3792,2853
3289,-681,4092,3012
3290,-567,3582,3012
3291,-567,3582,3147
3292,-720,4263,3147
3293,-507,4263,3294
3294,-507,4407,3039
3295,-912,4455,3039
3296,-1086,4455,2727
3297,-1086,4071,2727
3298,-849,4071,2496
3299,-849,3945,2658
3300,-1134,4152,2658
3301,-867,4152,2661
3302,-867,4482,2472
3303,-753,4482,2472
3304,-753,4665,2265
3305,-537,4191,2265
3306,-768,4191,2502
3307,-768,4551,2256
3308,-714,4551,2256
3309,-714,4758,2091
3310,-858,4731,2091
3311,-942,4731,1710
3312,-942,4542,1653
3313,-924,3747,1653
3314,-924,3747,1980
3315,-945,3978,1980
3316,-906,3978,1839
3317,-906,4314,1758
3318,-906,4464,1758
3319,-1023,4464,1584
3320,-1023,4518,1584
3321,-996,4518,1608
3322,-996,4320,1785
3323,-1026,4368,1785
3324,-987,4368,1743
3325,-987,4497,1578
3326,-996,4497,1578
3327,-996,4467,1443
3328,-1032,4551,1443
3329,-927,4551,1317
3330,-927,4461,1173
3331,-630,4461,1173
3332,-630,4476,1176
3333,-453,4431,1176
3334,-219,4431,1083
3335,-219,4467,1113
3336,-159,4392,1113
3337,-159,4392,1071
3338,-210,4512,1071
3339,-96,4512,1062
3340,-96,4689,966
3341,21,4887,966
3342,21,4887,1002
3343,144,4596,1002
3344,-1182,4596,1206
3345,-1182,4314,2280
3346,-1644,4728,2280
3347,-1827,4728,2445
3348,-1827,4686,2445
3349,-1374,4686,2166
3350,-1374,4668,1908
3351,-717,4557,1908
3352,-132,4557,1413
3353,-132,4269,855
3354,282,4269,855
3355,282,4023,384
3356,414,3810,384
3357,354,3810,114
3358,354,3870,-108
3359,123,3834,-108
3360,123,3834,-162
3361,-57,3846,-162
3362,-165,3846,-243
3363,-165,3855,-171
3364,-276,3927,-171
3365,-276,3927,-237
3366,-339,3954,-237
3367,-336,3954,-216
3368,-336,3903,-171
3369,-426,3849,-171
3370,-354,3849,-51
3371,-354,3849,-51
3372,-321,3849,-48
3373,-321,3933,-63
3374,-291,4035,-63
3375,-186,4035,0
3376,-186,4077,9
3377,-234,4077,9
3378,-234,4059,165
3379,-180,4152,165
3380,-309,4152,219
3381,-309,4227,309
3382,-405,4227,309
3383,-405,4185,420
3384,-453,4278,420
3385,-417,4278,519
3386,-417,4350,621
3387,-375,4407,621
3388,-375,4407,564
3389,-291,4449,564
3390,-285,4449,471
3391,-285,4338,381
3392,-324,4185,381
3393,-291,4185,228
3394,-291,4089,228
3395,-333,4089,105
3396,-333,3921,114
3397,-288,3954,114
3398,-219,3954,45
3399,-219,3984,45
3400,-150,3984,48
3401,-150,4080,75
3402,-201,4032,75
3403,-150,4032,99
3404,-150,4047,39
3405,-372,4047,39
3406,-372,3990,9
3407,-459,3960,9
3408,-573,3960,54
3409,-573,4002,63
3410,-594,4014,63
3411,-594,4014,114
3412,-513,4002,114
3413,-327,4002,123
3414,-327,4092,99
3415,-234,4218,99
3416,-234,4218,168
3417,-195,4269,168
3418,-219,4269,189
3419,-219,4245,183
3420,-237,4191,183
3421,-288,4191,198
3422,-288,4191,198
3423,-384,4191,204
3424,-384,4140,69
3425,-471,4059,69
3426,-441,4059,99
3427,-441,3996,120
3428,-426,3996,120
3429,-426,3996,195
3430,-417,3945,195
3431,-378,3945,108
3432,-378,4008,198
3433,-372,4056,198
3434,-372,4056,195
3435,-336,4053,195
3436,-372,4053,213
3437,-372,4089,174
3438,-339,4080,174
3439,-339,4080,180
3440,-318,4089,180
3441,-318,4089,84
3442,-318,4065,93
3443,-306,4074,93
3444,-270,4074,-12
3445,-270,4047,-12
3446,-258,4047,-18
3447,-258,4056,24
3448,-291,4032,24
3449,-273,4032,24
3450,-273,4026,48
3451,-324,4026,48
3452,-324,4062,168
3453,-417,4101,168
3454,-393,4101,225
3455,-393,4143,138
3456,-444,4167,138
3457,-444,4167,114
3458,-417,4233,114
3459,-375,4233,129
3460,-375,4176,108
3461,-375,4137,108
3462,-375,4137,75
3463,-360,4077,75
3464,-384,4077,150
3465,-384,3978,129
3466,-360,4026,129
3467,-396,4026,225
3468,-396,4017,225
3469,-438,4017,159
3470,-438,4068,165
3471,-387,4083,165
3472,-405,4083,198
3473,-405,4077,198
3474,-417,4077,198
3475,-417,4050,99
3476,-423,4017,99
3477,-357,4017,120
3478,-357,4077,3
3479,-321,4047,3
3480,-321,4047,33
3481,-213,4089,33
3482,-183,4089,-18
3483,-183,4113,24
3484,-177,4131,24
3485,-177,4131,45
3486,-171,4110,45
3487,-282,4110,60
3488,-282,4185,150
3489,-387,4185,150
3490,-453,4185,114
3491,-453,4155,114
3492,-486,4155,120
3493,-486,4140,120
3494,-489,4083,120
3495,-426,4083,138
3496,-426,4023,150
3497,-336,4023,150
3498,-336,4047,120
3499,-333,4038,120
3500,-333,4038,159
3501,-333,4089,114
3502,-357,4089,114
3503,-357,4140,204
3504,-411,4083,204
3505,-438,4083,204
3506,-438,4050,159
3507,-465,4023,159
3508,-465,4023,69
3509,-456,3990,69
3510,-432,3990,-18
3511,-432,3981,0
3512,-372,4029,0
3513,-357,4029,15
3514,-357,3999,15
3515,-279,3999,15
3516,-279,4050,9
3517,-333,4098,9
3518,-267,4098,48
3519,-267,4149,129
3520,-288,4149,129
3521,-288,4098,210
3522,-318,4167,210
3523,-297,4167,204
3524,-297,4146,243
3525,-360,4146,243
3526,-360,4161,210
3527,-405,4110,210
3528,-456,4110,198
3529,-456,4032,60
3530,-441,4002,60
3531,-441,4002,78
3532,-462,3987,78
3533,-375,3987,15
3534,-375,4050,30
3535,-315,4104,30
3536,-252,4104,48
3537,-252,4143,48
3538,-318,4143,60
3539,-318,4110,114
3540,-387,4101,114
3541,-387,4101,108
3542,-387,4056,180
3543,-375,4056,180
3544,-375,4047,204
3545,-366,4065,204
3546,-336,4065,120
3547,-336,4077,39
3548,-354,4077,39
3549,-354,3996,-18
3550,-351,4005,-18
3551,-354,4005,-96
3552,-354,3942,-12
3553,-342,3930,-12
3554,-342,3930,-138
3555,-423,3921,-138
3556,-501,3921,-123
3557,-501,3897,-6
3558,-585,3870,-6
3559,-585,3870,18
3560,-696,3945,18
3561,-714,3945,105
3562,-714,4128,54
3563,-606,4323,54
3564,-561,4323,144
3565,-561,4416,375
3566,-396,4416,375
3567,-396,4596,624
3568,-663,4461,624
3569,-648,4461,630
3570,-648,4506,765
3571,-924,4506,765
3572,-924,4344,1287
3573,-891,4152,1287
3574,-804,4152,1695
3575,-804,4431,2070
3576,-510,4809,2070
3577,-510,4809,2370
3578,-111,4974,2370
3579,-168,4974,2838
3580,-168,5181,2796
3581,-408,5382,2796
3582,-318,5382,2811
3583,-318,5631,2811
3584,-162,5631,2718
3585,-162,5649,2706
3586,-336,5466,2706
3587,-324,5466,2577
3588,-324,5457,2577
3589,-429,5457,2415
3590,-429,5271,2436
3591,-429,5577,2436
3592,-390,5577,2361
3593,-390,5508,2310
3594,-633,5508,2310
3595,-633,5436,2436
3596,-729,5481,2436
3597,-774,5481,2307
3598,-774,5481,2229
3599,-681,5517,2229
3600,-681,5517,2199
3601,-537,5304,2199
3602,-558,5304,2100
3603,-558,5079,2205
3604,-723,5028,2205
3605,-723,5028,2094
3606,-417,5022,2094
3607,-594,5022,2139
3608,-594,4509,2085
3609,-408,4434,2085
3610,-183,4434,2085
3611,-183,4221,2085
3612,-183,4221,2079
3613,-183,4086,2100
3614,-318,3801,2100
3615,-573,3801,2166
3616,-573,3354,2226
3617,-663,3354,2226
3618,-663,3222,2265
3619,-564,3105,2265
3620,-489,3105,2277
3621,-489,3024,2322
3622,-375,3024,2322
3623,-375,2610,2247
3624,-210,2523,2247
3625,-24,2523,2532
3626,-24,2148,2583
3627,-246,1863,2583
3628,-246,1863,2676
3629,-540,1791,2676
3630,-237,1791,2643
3631,-237,1734,2667
3632,-213,1329,2667
3633,-213,1329,2808
3634,-288,1122,2808
3635,-45,1122,2871
3636,-45,1140,2913
3637,12,1140,2913
3638,129,1140,2904
3639,129,876,2904
3640,48,876,2883
3641,48,858,2808
3642,30,600,2808
3643,-57,600,2778
3644,-57,435,2691
3645,-144,435,2691
3646,-144,222,2586
3647,-117,153,2586
3648,60,153,2496
3649,60,-75,2538
3650,168,-75,2538
3651,168,-135,2442
3652,126,-111,2442
3653,138,-111,2487
3654,138,-153,2292
3655,117,-168,2292
3656,117,-168,2292
3657,99,-324,2292
3658,45,-324,2121
3659,45,-495,2100
3660,81,-558,2100
3661,81,-558,1986
3662,45,-597,1986
3663,285,-597,1875
3664,285,-693,1824
3665,483,-465,1824
3666,408,-465,1860
3667,408,-453,1860
3668,186,-453,1830
3669,186,-528,1758
3670,282,-345,1758
3671,246,-345,1950
3672,246,-219,2040
3673,444,-219,2040
3674,444,282,2124
3675,432,408,2124
3676,477,408,2061
3677,477,684,2181
3678,-99,456,2181
3679,-99,456,2241
3680,-201,843,2241
3681,-318,843,2166
3682,-318,1125,2124
3683,-618,1173,2124
3684,-618,1173,2265
3685,-942,1146,2265
3686,-1050,1146,2415
3687,-1050,1458,2391
3688,-981,1734,2391
3689,-930,1734,2472
3690,-930,1989,2472
3691,-825,1989,2457
3692,-825,2157,2781
3693,-879,2514,2781
3694,-921,2514,2733
3695,-921,2691,2598
3696,-996,2691,2598
3697,-996,2655,2712
3698,-1248,2769,2712
3699,-831,2769,2967
3700,-831,3201,3114
3701,-540,3720,3114
3702,-540,3720,2748
3703,-753,3849,2748
3704,-1206,3849,2958
3705,-1206,3240,3204
3706,-1929,3711,3204
3707,-1929,3711,3153
3708,-1929,4428,3153
3709,-1683,4428,2904
3710,-1683,4746,2913
3711,-1590,3879,2913
3712,-1311,3879,3039
3713,-1311,4335,3039
3714,-774,4335,2877
3715,-774,4803,2637
3716,-480,4737,2637
3717,-681,4737,2607
3718,-681,4401,2898
3719,-927,4401,2898
3720,-927,4389,2667
3721,-1074,4707,2667
3722,-1041,4707,2547
3723,-1041,4998,2340
3724,-1086,4998,2340
3725,-1086,4920,2295
3726,-924,3954,2295
3727,-1596,3954,2643
3728,-1596,4395,2376
3729,-1290,4686,2376
3730,-1290,4686,2175
3731,-1128,4875,2175
3732,-1236,4875,2055
3733,-1236,4713,2139
3734,-1005,4641,2139
3735,-981,4641,2094
3736,-981,4299,2094
3737,-1152,4299,2004
3738,-1152,4533,1971
3739,-1041,4668,1971
3740,-897,4668,1944
3741,-897,4680,1944
3742,-774,4680,1869
3743,-774,4641,1869
3744,-630,4551,1869
3745,-705,4551,1839
3746,-705,4392,1620
3747,-888,4392,1620
3748,-888,4509,1497
3749,-921,4539,1497
3750,-1029,4539,1299
3751,-1029,4449,1284
3752,-942,4302,1284
3753,-942,4302,1107
3754,-1647,4119,1107
3755,-2496,4119,1929
3756,-2496,4674,2430
3757,-2463,4317,2430
3758,-2463,4317,2265
3759,-2274,4203,2265
3760,-1665,4203,1863
3761,-1665,4137,1497
3762,-1083,4044,1497
3763,-435,4044,930
3764,-435,3945,930
3765,-132,3945,531
3766,-132,3846,144
3767,21,3894,144
3768,-102,3894,-72
3769,-102,3831,-243
3770,-186,3831,-243
3771,-186,3993,-213
3772,-219,4050,-213
3773,-249,4050,-198
3774,-249,4053,-183
3775,-309,4053,-183
3776,-309,4038,-96
3777,-333,4026,-96
3778,-321,4026,-93
3779,-321,4032,18
3780,-393,3945,18
3781,-393,3945,78
3782,-417,4002,78
3783,-459,4002,180
3784,-459,4116,288
3785,-510,4239,288
3786,-510,4239,360
3787,-492,4266,360
3788,-375,4266,396
3789,-375,4239,444
3790,-384,4167,444
3791,-360,4167,426
3792,-360,4200,426
3793,-369,4200,336
3794,-369,4182,375
3795,-369,4074,375
3796,-369,4074,309
3797,-369,4113,225
3798,-405,4113,225
3799,-405,4035,273
3800,-546,4059,273
3801,-543,4059,255
3802,-543,4083,153
3803,-609,4209,153
3804,-609,4209,213
3805,-648,4104,213
3806,-555,4104,150
3807,-555,4047,69
3808,-558,4068,69
3809,-558,4068,90
3810,-492,4089,90
3811,-429,4089,123
3812,-429,4065,123
3813,-492,4047,123
3814,-486,4047,144
3815,-486,4026,144
3816,-555,4026,153
3817,-555,4065,138
3818,-540,4080,138
3819,-528,4080,198
3820,-528,4044,198
3821,-489,4044,198
3822,-489,4029,174
3823,-447,3993,174
3824,-438,3993,144
3825,-438,3984,153
3826,-465,3984,153
3827,-465,4044,120
3828,-474,4047,120
3829,-465,4047,165
3830,-465,4080,123
3831,-510,3972,123
3832,-510,3972,69
3833,-561,3900,69
3834,-555,3900,63
3835,-555,3942,120
3836,-654,3942,120
3837,-654,3942,90
3838,-624,3984,90
3839,-651,3984,138
3840,-651,3909,153
3841,-579,3993,153
3842,-576,3993,165
3843,-576,4041,165
3844,-567,4041,135
3845,-567,4017,135
3846,-579,4080,135
3847,-633,4080,198
3848,-633,4083,135
3849,-558,4083,135
3850,-558,4089,174
3851,-525,4137,174
3852,-456,4137,228
3853,-456,4185,150
3854,-366,4185,150
3855,-366,4158,219
3856,-390,4191,219
3857,-387,4191,159
3858,-387,4236,183
3859,-435,4215,183
3860,-435,4215,219
3861,-462,4137,219
3862,-426,4137,180
3863,-426,4092,138
3864,-429,4056,138
3865,-444,4056,165
3866,-444,4032,165
3867,-411,4032,153
3868,-411,4092,105
3869,-429,4110,105
3870,-489,4110,129
3871,-489,4107,75
3872,-465,4107,75
3873,-465,4128,45
3874,-516,4077,45
3875,-528,4077,108
3876,-528,4041,93
3877,-567,4041,93
3878,-567,4014,75
3879,-537,4059,75
3880,-507,4059,39
3881,-507,3996,30
3882,-540,4035,30
3883,-540,4035,39
3884,-585,4008,39
3885,-549,4008,69
3886,-549,4044,48
3887,-537,4026,48
3888,-537,4026,78
3889,-549,4041,78
3890,-564,4041,120
3891,-564,4095,15
3892,-594,4101,15
3893,-543,4101,18
3894,-543,4074,18
3895,-525,4074,-48
3896,-525,4077,-6
3897,-516,4062,-6
3898,-531,4062,0
3899,-531,4041,-12
3900,-510,4041,-12
3901,-510,4014,90
3902,-522,4098,90
3903,-504,4098,150
3904,-504,4104,210
3905,-459,4161,210
3906,-459,4161,243
3907,-447,4137,243
3908,-384,4137,255
3909,-384,4116,159
3910,-351,4086,159
3911,-351,4086,45
3912,-372,4095,45
3913,-369,4095,24
3914,-369,4062,-33
3915,-375,4017,-33
3916,-402,4017,-51
3917,-402,4044,-51
3918,-402,4044,-6
3919,-402,4005,-27
3920,-381,4017,-27
3921,-390,4017,-33
3922,-390,4095,-6
3923,-438,4095,-6
3924,-438,4077,-21
3925,-450,4062,-21
3926,-447,4062,48
3927,-447,4077,48
3928,-531,4077,48
3929,-531,4161,3
3930,-426,4176,3
3931,-498,4176,48
3932,-498,4242,93
3933,-384,4158,93
3934,-384,4158,183
3935,-474,4113,183
3936,-489,4113,99
3937,-489,4095,63
3938,-546,4131,63
3939,-597,4131,78
3940,-597,4083,78
3941,-612,4083,63
3942,-612,4092,0
3943,-651,3996,0
3944,-672,3996,-66
3945,-672,3951,-21
3946,-651,3951,-21
3947,-651,3960,-66
3948,-663,3990,-66
3949,-615,3990,-162
3950,-615,4035,-102
3951,-585,4035,-102
3952,-585,4029,-147
3953,-543,3999,-147
3954,-513,3999,-81
3955,-513,3999,-6
3956,-516,4098,-6
3957,-516,4098,39
3958,-489,4155,39
3959,-465,4155,54
3960,-465,4203,144
3961,-420,4221,144
3962,-384,4221,210
3963,-384,4221,210
3964,-396,4221,168
3965,-396,4263,99
3966,-366,4236,99
3967,-423,4236,105
3968,-423,4170,30
3969,-423,4170,30
3970,-423,4104,3
3971,-510,3975,3
3972,-543,3975,-48
3973,-543,3909,-48
3974,-543,3909,-48
3975,-543,3870,18
3976,-567,3930,18
3977,-480,3930,54
3978,-480,3999,48
3979,-507,4056,48
3980,-507,4056,123
3981,-453,4029,123
3982,-486,4029,90
3983,-486,4014,45
3984,-546,4008,45
3985,-564,4008,9
3986,-564,4047,9
3987,-483,4047,-57
3988,-483,4041,-78
3989,-450,4143,-78
3990,-432,4143,-48
3991,-432,4209,-18
3992,-363,4209,-18
3993,-363,4176,-12
3994,-357,4227,-12
3995,-375,4227,93
3996,-375,4218,153
3997,-387,4218,153
3998,-387,4212,174
3999,-435,4146,174
4000,-495,4146,225
4001,-495,4107,228
4002,-504,4062,228
4003,-504,4062,204
4004,-567,4023,204
4005,-522,4023,174
4006,-522,3930,138
4007,-504,3930,138
4008,-504,3930,15
4009,-456,3966,15
4010,-528,3966,54
4011,-528,4005,-6
4012,-507,4002,-6
4013,-507,4002,-33
4014,-507,4035,-33
4015,-525,4035,24
4016,-525,4038,-81
4017,-543,4014,-81
4018,-510,4014,-96
4019,-510,4008,-123
4020,-543,4008,-123
4021,-543,4002,-42
4022,-498,3975,-42
4023,-495,3975,-36
4024,-495,4008,9
4025,-504,4008,9
4026,-504,4011,48
4027,-531,4062,48
4028,-522,4062,84
4029,-522,4116,138
4030,-504,4290,138
4031,-504,4290,138
4032,-465,4305,138
4033,-366,4305,123
4034,-366,4353,99
4035,-348,4305,99
4036,-387,4305,63
4037,-387,4239,63
4038,-456,4239,33
4039,-456,4152,45
4040,-492,3996,45
4041,-456,3996,54
4042,-456,3903,93
4043,-321,3903,93
4044,-321,3813,123
4045,-282,3897,123
4046,-213,3897,168
4047,-213,4017,138
4048,-180,4164,138
4049,-180,4164,159
4050,-240,4389,159
4051,-240,4389,69
4052,-240,4347,-21
4053,-300,4248,-21
4054,-300,4248,-57
4055,-369,4257,-57
4056,-516,4257,-111
4057,-516,4215,-78
4058,-570,4116,-78
4059,-513,4116,-108
4060,-513,4032,-108
4061,-459,4032,-12
4062,-459,3939,33
4063,-378,3972,33
4064,-366,3972,75
4065,-366,4035,150
4066,-411,4035,150
4067,-411,4041,354
4068,-507,4161,354
4069,-813,4161,414
4070,-813,4032,384
4071,-1065,4032,384
4072,-1065,4104,510
4073,-1224,4029,510
4074,-1131,4029,651
4075,-1131,3954,912
4076,-1194,4203,912
4077,-1194,4203,1197
4078,-1056,4581,1197
4079,-720,4581,1422
4080,-720,4992,1773
4081,-609,4773,1773
4082,-609,4773,1959
4083,-582,4629,1959
4084,-669,4629,2256
4085,-669,4917,2271
4086,-693,5124,2271
4087,-660,5124,2211
4088,-660,5196,2211
4089,-558,5196,2277
4090,-558,5103,2436
4091,-477,5436,2436
4092,-678,5436,2577
4093,-678,5688,2442
4094,-681,5688,2442
4095,-681,6201,2451
4096,-771,6093,2451
4097,-717,6093,2541
4098,-717,6000,2532
4099,-930,5769,2532
4100,-930,5769,2445
4101,-1023,5796,2445
4102,-939,5796,2199
4103,-939,6102,2025
4104,-1152,5895,2025
4105,-1152,5895,1920
4106,-1167,5661,1920
4107,-1248,5661,1845
4108,-1248,5469,1809
4109,-1134,5268,1809
4110,-1149,5268,1728
4111,-1149,5139,1728
4112,-1047,5139,1629
4113,-1047,4857,1554
4114,-948,4602,1554
4115,-747,4602,1728
4116,-747,4557,1833
4117,-606,4557,1833
4118,-606,4323,1944
4119,-567,3849,1944
4120,-738,3849,1905
4121,-738,3954,1893
4122,-597,3858,1893
4123,-597,3858,1818
4124,-336,3711,1818
4125,-102,3711,1848
4126,-102,3393,1818
4127,-66,3141,1818
4128,-66,3141,1830
4129,312,2883,1830
4130,366,2883,1908
4131,366,2631,1914
4132,318,2373,1914
4133,363,2373,1905
4134,363,2112,1905
4135,312,2112,2040
4136,312,1839,2130
4137,387,1590,2130
4138,456,1590,2256
4139,456,1485,2235
4140,372,1485,2235
4141,372,1227,2199
4142,414,906,2199
4143,354,906,2436
4144,354,729,2355
4145,321,612,2355
4146,321,612,2472
4147,336,411,2472
4148,231,411,2367
4149,231,234,2316
4150,288,15,2316
4151,288,15,2256
4152,456,15,2256
4153,570,15,2271
4154,570,45,2175
4155,603,-201,2175
4156,477,-201,2121
4157,477,-438,2121
4158,426,-438,1986
4159,426,-585,2019
4160,477,-606,2019
4161,369,-606,2112
4162,369,-582,2106
4163,384,-582,2106
4164,384,-573,2049
4165,330,-522,2049
4166,195,-522,2091
4167,195,-486,2157
4168,159,-486,2157
4169,159,-423,2265
4170,162,-486,2265
4171,60,-486,2352
4172,60,-366,2592
4173,132,-114,2592
4174,132,-114,2607
4175,132,105,2607
4176,138,105,2673
4177,138,342,2631
4178,201,336,2631
4179,-102,336,2751
4180,-102,366,2751
4181,-171,366,2706
4182,-171,480,2622
4183,-318,576,2622
4184,-168,576,2496
4185,-168,816,2682
4186,-309,816,2682
4187,-309,675,2796
4188,-375,987,2796
4189,-351,987,2652
4190,-351,1299,2457
4191,-402,1299,2457
4192,-402,1524,2637
4193,-606,1353,2637
4194,-729,1353,2661
4195,-729,1518,2733
4196,-876,1677,2733
4197,-876,1677,2496
4198,-816,1800,2496
4199,-867,1800,2436
4200,-867,2151,2571
4201,-954,2166,2571
4202,-831,2166,2742
4203,-831,2409,2742
4204,-945,2409,2517
4205,-945,2571,2361
4206,-1017,2970,2361
4207,-804,2970,2196
4208,-804,2919,2535
4209,-867,2919,2535
4210,-867,3078,2568
4211,-591,3429,2568
4212,-540,3429,2535
4213,-540,3708,2460
4214,-420,3708,2460
4215,-420,4014,2796
4216,-270,4290,2796
4217,-387,4290,2643
4218,-387,4596,2436
4219,-180,4305,2436
4220,-180,4305,2703
4221,-324,4299,2703
4222,-495,4299,2598
4223,-495,5010,2673
4224,-447,5148,2673
4225,-447,5148,2367
4226,-366,5061,2367
4227,-411,5061,2442
4228,-411,4509,2577
4229,-699,4617,2577
4230,-756,4617,2583
4231,-756,4980,2583
4232,-954,4980,2442
4233,-954,5268,2196
4234,-873,5262,2196
4235,-711,5262,1935
4236,-711,4818,1839
4237,-888,4818,1839
4238,-888,4896,1620
4239,-867,5154,1620
4240,-960,5154,1347
4241,-960,5013,1212
4242,-942,4827,1212
4243,-942,4827,1338
4244,-693,4251,1338
4245,-831,4251,1329
4246,-831,4590,1458
4247,-837,4851,1458
4248,-1257,4851,1644
4249,-1257,4728,1644
4250,-1962,4728,1755
4251,-1962,4776,1683
4252,-2112,4596,1683
4253,-1926,4596,1494
4254,-1926,4395,1569
4255,-1713,4395,1569
4256,-1713,4194,1614
4257,-1293,4212,1614
4258,-831,4212,1614
4259,-831,4302,1518
4260,-435,4302,1518
4261,-435,4434,1404
4262,-177,4596,1404
4263,-678,4596,1392
4264,-678,4611,2094
4265,-1476,4992,2094
4266,-1476,4992,2307
4267,-1608,4794,2307
4268,-1281,4794,2004
4269,-1281,4458,1437
4270,-591,4263,1437
4271,39,4263,951
4272,39,4104,951
4273,405,4104,339
4274,405,4047,9
4275,468,4152,9
4276,243,4152,-261
4277,243,4011,-399
4278,144,4011,-399
4279,144,3981,-474
4280,-144,3942,-474
4281,-171,3942,-492
4282,-171,3846,-519
4283,-138,3846,-519
4284,-138,3879,-468
4285,-189,3858,-468
4286,-204,3858,-438
4287,-204,3879,-387
4288,-300,3942,-387
4289,-300,3942,-177
4290,-516,4062,-177
4291,-684,4062,114
4292,-684,4218,426
4293,-774,4344,426
4294,-774,4344,624
4295,-660,4455,624
4296,-531,4455,576
4297,-531,4476,555
4298,-231,4443,555
4299,-51,4443,321
4300,-51,4302,180
4301,9,4302,180
4302,9,4164,9
4303,-21,4083,9
4304,-126,4083,-48
4305,-126,3990,-192
4306,-309,3990,-192
4307,-309,3936,-147
4308,-378,3975,-147
4309,-513,3975,-228
4310,-513,3954,-192
4311,-540,3945,-192
4312,-540,3945,-177
4313,-633,3939,-177
4314,-630,3939,-207
4315,-630,3951,-183
4316,-567,4002,-183
4317,-543,4002,-261
4318,-543,3945,-261
4319,-531,3945,-252
4320,-531,4017,-126
4321,-561,4029,-126
4322,-570,4029,-108
4323,-570,4155,-48
4324,-579,4155,-48
4325,-579,4158,-21
4326,-510,4107,-21
4327,-465,4107,33
4328,-465,4125,24
4329,-384,4167,24
4330,-384,4167,48
4331,-327,4260,48
4332,-354,4260,33
4333,-354,4290,39
4334,-315,4212,39
4335,-315,4212,-27
4336,-324,4089,-27
4337,-441,4089,-36
4338,-441,4083,-168
4339,-447,4005,-168
4340,-516,4005,-171
4341,-516,3975,-171
4342,-459,3975,-201
4343,-459,3978,-222
4344,-456,4005,-222
4345,-426,4005,-207
4346,-426,4041,-138
4347,-369,4041,-138
4348,-369,4116,-72
4349,-405,4155,-72
4350,-414,4155,-48
4351,-414,4125,3
4352,-429,4125,3
4353,-429,4107,69
4354,-444,4158,69
4355,-495,4158,-96
4356,-495,4194,-81
4357,-429,4185,-81
4358,-429,4185,-96
4359,-423,4149,-96
4360,-375,4149,-126
4361,-375,4092,-111
4362,-285,4110,-111
4363,-420,4110,-102
4364,-420,4092,-102
4365,-393,4092,-153
4366,-393,4098,-126
4367,-474,4086,-126
4368,-474,4086,-123
4369,-474,4059,-147
4370,-447,4059,-147
4371,-447,4014,-117
4372,-432,3966,-117
4373,-477,3966,-72
4374,-477,3945,-102
4375,-447,3945,-102
4376,-447,3963,-48
4377,-405,4035,-48
4378,-414,4035,-183
4379,-414,4032,-141
4380,-357,4059,-141
4381,-357,4059,-153
4382,-393,4050,-153
4383,-441,4050,-168
4384,-441,4131,-117
4385,-423,4131,-117
4386,-423,4131,-153
4387,-396,4074,-153
4388,-333,4074,-177
4389,-333,4131,-192
4390,-300,4086,-192
4391,-249,4086,-123
4392,-249,4155,-123
4393,-219,4155,-141
4394,-219,4164,-27
4395,-240,4185,-27
4396,-168,4185,30
4397,-168,4158,24
4398,-228,4158,24
4399,-228,4167,9
4400,-264,4137,9
4401,-393,4137,0
4402,-393,4074,-33
4403,-408,3975,-33
4404,-408,3975,-102
4405,-381,3948,-102
4406,-285,3948,-102
4407,-285,3996,-186
4408,-288,4035,-186
4409,-288,4035,-216
4410,-294,4059,-216
4411,-312,4059,-213
4412,-312,4047,-147
4413,-318,4032,-147
4414,-393,4032,-138
4415,-393,3999,-138
4416,-426,3999,-147
4417,-426,4029,-237
4418,-510,4062,-237
4419,-498,4062,-141
4420,-498,4095,-147
4421,-423,4095,-147
4422,-423,4098,-162
4423,-360,4197,-162
4424,-327,4197,-237
4425,-327,4185,-117
4426,-240,4185,-117
4427,-240,4185,-72
4428,-240,4188,-72
4429,-168,4188,-42
4430,-168,4167,18
4431,-219,4236,18
4432,-219,4236,33
4433,-255,4191,33
4434,-357,4191,3
4435,-357,4104,39
4436,-327,4077,39
4437,-306,4077,-51
4438,-306,4074,-51
4439,-318,4074,-57
4440,-318,4059,-138
4441,-282,4074,-138
4442,-255,4074,-153
4443,-255,4068,-201
4444,-249,4068,-201
4445,-249,4044,-147
4446,-300,4008,-147
4447,-342,4008,-216
4448,-342,4026,-231
4449,-411,4017,-231
4450,-411,4017,-237
4451,-441,3987,-237
4452,-441,3987,-297
4453,-441,4002,-231
4454,-447,4047,-231
4455,-447,4047,-252
4456,-456,4041,-252
4457,-432,4041,-201
4458,-432,4119,-126
4459,-414,4143,-126
4460,-423,4143,-168
4461,-423,4221,-168
4462,-480,4221,-72
4463,-480,4062,-102
4464,-429,4101,-102
4465,-501,4101,-96
4466,-501,4131,-81
4467,-522,4131,-81
4468,-522,4086,-132
4469,-522,4059,-132
4470,-408,4059,-93
4471,-408,4077,-111
4472,-375,4053,-111
4473,-375,4053,-132
4474,-300,4107,-132
4475,-282,4107,-177
4476,-282,4074,-162
4477,-318,4038,-162
4478,-318,4038,-117
4479,-303,4065,-117
4480,-321,4065,-132
4481,-321,4035,-147
4482,-288,4110,-147
4483,-270,4110,-147
4484,-270,4134,-147
4485,-282,4134,-171
4486,-282,4116,-228
4487,-240,4059,-228
4488,-255,4059,-231
4489,-255,4026,-177
4490,-273,4026,-177
4491,-273,4044,-267
4492,-300,4131,-267
4493,-333,4131,-243
4494,-333,4131,-201
4495,-354,4128,-201
4496,-354,4128,-237
4497,-318,4158,-237
4498,-270,4158,-207
4499,-270,4191,-138
4500,-285,4215,-138
4501,-285,4215,-72
4502,-357,4230,-72
4503,-390,4230,-93
4504,-390,4149,-78
4505,-438,4119,-78
4506,-441,4119,-33
4507,-441,4050,-33
4508,-378,4050,-33
4509,-378,4005,18
4510,-378,4032,18
4511,-339,4032,0
4512,-339,4032,-66
4513,-369,4032,-66
4514,-369,4026,-213
4515,-495,4119,-213
4516,-633,4119,-252
4517,-633,3897,-276
4518,-690,3897,-276
4519,-690,3795,-384
4520,-717,4038,-384
4521,-696,4038,-624
4522,-696,4260,-879
4523,-429,4170,-879
4524,-429,4170,-981
4525,-126,3960,-981
4526,24,3960,-612
4527,24,3918,-222
4528,-48,3798,-222
4529,3,3798,405
4530,3,4167,405
4531,-219,4167,993
4532,-219,4248,1554
4533,-42,4563,1554
4534,-6,4563,1860
4535,-6,4746,2277
4536,96,4746,2277
4537,96,4752,2892
4538,-177,4662,2892
4539,-315,4662,3177
4540,-315,4875,3816
4541,-579,5475,3816
4542,-579,5475,3870
4543,-702,5934,3870
4544,-954,5934,3882
4545,-954,6288,3756
4546,-948,6573,3756
4547,-1152,6573,3666
4548,-1152,6660,3666
4549,-996,6660,3624
4550,-996,6585,3420
4551,-993,6228,3420
4552,-549,6228,3429
4553,-549,6387,3579
4554,-522,6387,3579
4555,-522,6945,3861
4556,-537,7389,3861
4557,-1092,7389,3774
4558,-1092,7482,3744
4559,-1323,7482,3744
4560,-1323,7269,3774
4561,-1374,7293,3774
4562,-831,7293,3666
4563,-831,7431,3591
4564,-447,7617,3591
4565,-447,7617,3504
4566,-633,7461,3504
4567,-324,7461,3285
4568,-324,7224,2994
4569,546,7251,2994
4570,546,7251,2979
4571,513,7395,2979
4572,306,7395,2727
4573,306,7275,1995
4574,-168,6387,1995
4575,-423,6387,1434
4576,-423,5322,1488
4577,6,5322,1488
4578,6,4896,978
4579,-144,4332,978
4580,72,4332,351
4581,72,4044,-522
4582,-144,4044,-522
4583,-144,3042,-969
4584,-27,1839,-969
4585,234,1839,-1302
4586,234,723,-1467
4587,885,-57,-1467
4588,885,-57,-1305
4589,1191,-345,-1305
4590,1173,-345,-1491
4591,1173,-549,-1527
4592,861,-1068,-1527
4593,723,-1068,-1545
4594,723,-1797,-1545
4595,597,-1797,-1587
4596,597,-2061,-1572
4597,780,-2082,-1572
4598,708,-2082,-1371
4599,708,-2400,-1365
4600,555,-2400,-1365
4601,555,-2466,-1215
4602,489,-2460,-1215
4603,744,-2460,-1125
4604,744,-2097,-900
4605,897,-2097,-900
4606,897,-1803,-813
4607,957,-1644,-813
4608,897,-1644,-624
4609,897,-1344,-402
4610,912,-915,-402
4611,912,-915,-216
4612,543,-492,-216
4613,315,-492,174
4614,315,-81,255
4615,300,357,255
4616,108,357,264
4617,108,1386,264
4618,318,1386,336
4619,318,1917,966
4620,-15,1989,966
4621,-252,1989,1203
4622,-252,2577,1293
4623,-285,2577,1293
4624,-285,2946,1980
4625,-408,3021,1980
4626,-351,3021,2190
4627,-351,4485,2175
4628,-714,4485,2175
4629,-714,4416,2787
4630,-975,4002,2787
4631,-1155,4002,2472
4632,-1155,4437,2766
4633,-1377,5160,2766
4634,-1377,5160,2817
4635,-1125,5448,2817
4636,-1320,5448,2793
4637,-1320,5550,2766
4638,-1374,5265,2766
4639,-1164,5265,3063
4640,-1164,5274,3063
4641,-1380,5274,2862
4642,-1380,6888,3210
4643,-1665,6591,3210
4644,-1482,6591,3393
4645,-1482,6315,3690
4646,-1776,6315,3690
4647,-1776,6318,3696
4648,-1944,6174,3696
4649,-1788,6174,3345
4650,-1788,6618,3234
4651,-1728,6618,3234
4652,-1728,6909,3405
4653,-948,6225,3405
4654,-876,6225,3339
4655,-876,6192,3300
4656,-942,5691,3300
4657,-942,5691,3219
4658,-1236,5589,3219
4659,-1563,5589,2994
4660,-1563,5718,3048
4661,-1476,5622,3048
4662,-1476,5622,2943
4663,-897,5616,2943
4664,-630,5616,2898
4665,-630,5271,2691
4666,-279,4914,2691
4667,-279,4914,2286
4668,-279,4782,2286
4669,-2499,4782,2205
4670,-2499,3999,4497
4671,-2835,5616,4497
4672,-3228,5616,4347
4673,-3228,5067,3546
4674,-2034,5067,3546
4675,-2034,4647,2793
4676,-915,4257,2793
4677,117,4257,1608
4678,117,4233,555
4679,603,3819,555
4680,603,3819,-237
4681,777,3870,-237
4682,333,3870,-399
4683,333,3828,-654
4684,132,3828,-654
4685,132,3828,-627
4686,-33,3759,-627
4687,-45,3759,-609
4688,-45,3891,-483
4689,-45,3837,-483
4690,-129,3837,-513
4691,-129,3825,-513
4692,-135,3825,-423
4693,-135,3792,-306
4694,-327,4065,-306
4695,-489,4065,-78
4696,-489,4170,273
4697,-840,4170,273
4698,-840,4239,711
4699,-963,4368,711
4700,-927,4368,930
4701,-927,4398,957
4702,-693,4368,957
4703,-693,4368,816
4704,-327,4266,816
4705,-51,4266,546
4706,-51,4176,375
4707,12,4053,375
4708,12,4053,108
4709,-60,3933,108
4710,-93,3933,15
4711,-93,3906,-57
4712,-225,3960,-57
4713,-393,3960,-171
4714,-393,3975,-171
4715,-408,3975,-126
4716,-408,3975,-78
4717,-369,3954,-78
4718,-264,3954,-27
4719,-264,4044,-87
4720,-243,4044,-87
4721,-243,4197,-51
4722,-96,4182,-51
4723,-60,4182,-36
4724,-60,4221,0
4725,-30,4170,0
4726,-30,4170,18
4727,-48,4146,18
4728,-171,4146,30
4729,-171,4128,30
4730,-258,4110,30
4731,-258,4110,69
4732,-324,4191,69
4733,-360,4191,69
4734,-360,4110,15
4735,-402,4068,15
4736,-504,4068,0
4737,-504,4089,0
4738,-498,4089,-33
4739,-498,3993,-48
4740,-495,4044,-48
4741,-540,4044,-33
4742,-540,3921,9
4743,-495,3921,9
4744,-495,3924,3
4745,-576,3981,3
4746,-444,3981,33
4747,-444,4035,39
4748,-372,4137,39
4749,-372,4137,39
4750,-291,4209,39
4751,-348,4209,0
4752,-348,4263,18
4753,-336,4239,18
4754,-336,4239,-27
4755,-375,4182,-27
4756,-360,4182,-96
4757,-360,4125,-168
4758,-273,4065,-168
4759,-273,4065,-246
4760,-273,4101,-246
4761,-216,4101,-246
4762,-216,4065,-258
4763,-234,4059,-258
4764,-252,4059,-237
4765,-252,4050,-126
4766,-276,4050,-126
4767,-276,4035,-63
4768,-369,4089,-63
4769,-360,4089,-27
4770,-360,4089,39
4771,-351,4089,39
4772,-351,4080,-6
4773,-345,4056,-6
4774,-282,4056,63
4775,-282,4101,9
4776,-270,4212,9
4777,-270,4212,3
4778,-240,4197,3
4779,-282,4197,-51
4780,-282,4197,33
4781,-273,4182,33
4782,-288,4182,0
4783,-288,4194,0
4784,-387,4194,-153
4785,-387,4104,-123
4786,-432,4065,-123
4787,-456,4065,-207
4788,-456,4041,-207
4789,-429,4041,-207
4790,-429,3987,-216
4791,-459,4044,-216
4792,-474,4044,-267
4793,-474,4011,-213
4794,-408,4011,-213
4795,-408,3996,-81
4796,-396,3951,-81
4797,-351,3951,-108
4798,-351,4008,-6
4799,-324,4062,-6
4800,-324,4062,-6
4801,-264,4149,-6
4802,-231,4149,-36
4803,-231,4155,-27
4804,-198,4149,-27
4805,-198,4149,-51
4806,-243,4200,-51
4807,-219,4200,-63
4808,-219,4125,-147
4809,-273,4113,-147
4810,-225,4113,-156
4811,-225,4053,-156
4812,-240,4053,-192
4813,-240,4044,-261
4814,-276,4098,-261
4815,-306,4098,-162
4816,-306,4116,-243
4817,-306,4116,-243
4818,-306,4188,-156
4819,-339,4194,-156
4820,-312,4194,-156
4821,-312,4170,-108
4822,-351,4143,-108
4823,-351,4143,-36
4824,-357,4104,-36
4825,-378,4104,-36
4826,-378,4035,-57
4827,-372,3990,-57
4828,-372,3990,-81
4829,-324,4038,-81
4830,-333,4038,0
4831,-333,4005,39
4832,-282,4047,39
4833,-282,4047,-36
4834,-282,4044,-36
4835,-240,4044,-102
4836,-240,4083,-153
4837,-270,4038,-153
4838,-255,4038,-162
4839,-255,4074,-246
4840,-270,4074,-246
4841,-270,4116,-192
4842,-294,4101,-192
4843,-222,4101,-243
4844,-222,4110,-213
4845,-255,4110,-213
4846,-255,4098,-186
4847,-285,4176,-186
4848,-294,4176,-126
4849,-294,4152,-33
4850,-351,4131,-33
4851,-351,4131,-81
4852,-357,4140,-81
4853,-459,4140,-51
4854,-459,4137,-81
4855,-444,4080,-81
4856,-405,4080,-78
4857,-405,4092,-78
4858,-309,4092,-168
4859,-309,4104,-138
4860,-267,4140,-138
4861,-174,4140,-111
4862,-174,4116,-126
4863,-240,4116,-126
4864,-240,4116,-138
4865,-264,4059,-138
4866,-321,4059,-192
4867,-321,4035,-207
4868,-345,4035,-207
4869,-345,4014,-198
4870,-387,3960,-198
4871,-360,3960,-237
4872,-360,3984,-276
4873,-324,3975,-276
4874,-324,3975,-216
4875,-345,3984,-216
4876,-369,3984,-261
4877,-369,4032,-246
4878,-345,4104,-246
4879,-345,4104,-198
4880,-324,4128,-198
4881,-291,4128,-222
4882,-291,4116,-111
4883,-327,4149,-111
4884,-336,4149,-132
4885,-336,4140,-132
4886,-363,4140,-48
4887,-363,4203,24
4888,-360,4233,24
4889,-369,4233,63
4890,-369,4188,-78
4891,-405,4188,-78
4892,-405,4116,-168
4893,-390,4104,-168
4894,-426,4104,-147
4895,-426,4023,-183
4896,-360,4023,-183
4897,-360,3978,-273
4898,-345,3984,-273
4899,-333,3984,-237
4900,-333,4032,-231
4901,-309,4107,-231
4902,-309,4107,-237
4903,-255,4107,-237
4904,-273,4107,-171
4905,-273,4107,-183
4906,-300,4062,-183
4907,-354,4062,-222
4908,-354,4053,-222
4909,-357,4053,-183
4910,-357,4059,-186
4911,-324,4077,-186
4912,-378,4077,-192
4913,-378,4101,-228
4914,-288,4101,-228
4915,-288,4152,-153
4916,-255,4140,-153
4917,-273,4140,-222
4918,-273,4095,-162
4919,-312,4095,-162
4920,-312,4107,-156
4921,-354,4161,-156
4922,-414,4161,-138
4923,-414,4245,-138
4924,-390,4197,-138
4925,-390,4197,-186
4926,-411,4083,-186
4927,-294,4083,-156
4928,-294,4080,-162
4929,-276,4017,-162
4930,-276,4017,-192
4931,-294,4059,-192
4932,-285,4059,-171
4933,-285,4023,-252
4934,-339,4005,-252
4935,-336,4005,-273
4936,-336,3999,-273
4937,-291,3999,-267
4938,-291,4017,-243
4939,-342,4167,-243
4940,-438,4167,-102
4941,-438,4389,0
4942,-456,4389,0
4943,-456,4455,30
4944,-723,4488,30
4945,-732,4488,78
4946,-732,4497,411
4947,-888,4497,411
4948,-888,4380,642
4949,-873,4233,642
4950,-792,4233,831
4951,-792,4095,1101
4952,-1074,3840,1101
4953,-1074,3840,1719
4954,-873,3996,1719
4955,-783,3996,2211
4956,-783,4077,2778
4957,-585,4485,2778
4958,-723,4485,3294
4959,-723,4992,3294
4960,-954,4992,3609
4961,-954,5562,3876
4962,-1026,6354,3876
4963,-825,6354,3756
4964,-825,6306,3804
4965,-945,6306,3804
4966,-945,6381,3699
4967,-957,6237,3699
4968,-1509,6237,3945
4969,-1509,5859,4167
4970,-1737,5859,4167
4971,-1737,6333,4077
4972,-2100,6687,4077
4973,-1986,6687,4056
4974,-1986,6765,4122
4975,-2382,6777,4122
4976,-2382,6777,3861
4977,-2094,7191,3861
4978,-2181,7191,3771
4979,-2181,6813,3420
4980,-1746,6990,3420
4981,-1218,6990,3504
4982,-1218,6732,3504
4983,-1137,6732,3549
4984,-1137,7497,3363
4985,-1464,7110,3363
4986,-1149,7110,2943
4987,-1149,6750,2802
4988,-1113,6750,2802
4989,-1113,6420,2541
4990,-1125,6258,2541
4991,-894,6258,2211
4992,-894,5376,1734
4993,-765,5376,1734
4994,-765,4824,1161
4995,-666,4218,1161
4996,-405,4218,672
4997,-405,3489,129
4998,-114,2838,129
4999,-114,2838,-192
5000,456,2034,-192
5001,897,2034,-549
5002,897,1287,-960
5003,963,855,-960
5004,963,855,-1134
5005,1230,180,-1134
5006,1359,180,-1284
5007,1359,-243,-1344
5008,1293,-696,-1344
5009,1053,-696,-1446
5010,1053,-1329,-1179
5011,993,-1329,-1179
5012,993,-1464,-1059
5013,819,-1542,-1059
5014,567,-1542,-1029
5015,567,-1575,-828
5016,492,-1575,-828
5017,492,-1617,-612
5018,489,-1533,-612
5019,549,-1533,-504
5020,549,-1380,-393
5021,390,-1056,-393
5022,390,-1056,-201
5023,435,-1062,-201
5024,312,-1062,135
5025,312,-1140,555
5026,552,-483,555
5027,552,-483,795
5028,225,114,795
5029,180,114,1023
5030,180,627,921
5031,-201,615,921
5032,-384,615,987
5033,-384,702,987
5034,-585,702,1146
5035,-585,624,1467
5036,-840,1263,1467
5037,-870,1263,1458
5038,-870,1992,1404
5039,-1011,1992,1404
5040,-1011,2520,1773
5041,-735,3063,1773
5042,-666,3063,2250
5043,-666,3417,2121
5044,-987,3417,2121
5045,-987,3600,2286
5046,-1182,3882,2286
5047,-609,3882,2607
5048,-609,4443,2586
5049,-711,5124,2586
5050,-711,5124,2889
5051,-1545,5547,2889
5052,-1767,5547,2808
5053,-1767,4992,2727
5054,-1548,5376,2727
5055,-1548,5376,3042
5056,-1581,5961,3042
5057,-1521,5961,3258
5058,-1521,5808,3264
5059,-2055,6177,3264
5060,-2097,6177,3018
5061,-2097,6075,3117
5062,-2073,6075,3117
5063,-2073,5973,3270
5064,-1989,5934,3270
5065,-1668,5934,3183
5066,-1668,6228,3228
5067,-1707,6228,3228
5068,-1707,5916,3117
5069,-1839,5706,3117
5070,-2094,5706,3450
5071,-2094,5034,3546
5072,-2508,5514,3546
5073,-2508,5514,3645
5074,-2187,5565,3645
5075,-2238,5565,3309
5076,-2238,5370,3039
5077,-1575,5076,3039
5078,-1575,5076,2727
5079,-1290,4761,2727
5080,-939,4761,2247
5081,-939,4866,1929
5082,-909,4833,1929
5083,-1059,4833,1569
5084,-1059,4818,1569
5085,-1152,4818,1071
5086,-1152,4683,816
5087,-1323,3849,816
5088,-3495,3849,1533
5089,-3495,4656,2982
5090,-3108,4656,2982
5091,-3108,4200,2592
5092,-2937,4956,2592
5093,-1956,4956,2166
5094,-1956,4764,1572
5095,-927,4764,1572
5096,-927,4575,921
5097,-144,4371,921
5098,369,4371,414
5099,369,4125,-51
5100,585,4089,-51
5101,585,4089,-483
5102,381,4083,-483
5103,33,4083,-669
5104,33,3969,-699
5105,-351,3768,-699
5106,-477,3768,-708
5107,-477,3849,-708
5108,-552,3849,-627
5109,-552,4002,-477
5110,-615,4053,-477
5111,-423,4053,-414
5112,-423,4065,-192
5113,-390,4065,-192
5114,-390,4116,-72
5115,-369,4149,-72
5116,-369,4149,24
5117,-369,4314,120
5118,-357,4314,120
5119,-357,4344,180
5120,-327,4371,180
5121,-288,4371,213
5122,-288,4365,165
5123,-267,4233,165
5124,-267,4233,69
5125,-222,4179,69
5126,-249,4179,-111
5127,-249,4134,-177
5128,-216,4092,-177
5129,-300,4092,-192
5130,-300,3996,-192
5131,-345,3996,-198
5132,-345,3954,-156
5133,-402,3894,-156
5134,-432,3894,-192
5135,-432,3903,-126
5136,-414,3903,-126
5137,-414,3936,-123
5138,-336,4032,-123
5139,-285,4032,-168
5140,-285,4080,-228
5141,-249,4080,-228
5142,-249,4023,-198
5143,-267,4038,-198
5144,-270,4038,-288
5145,-270,4056,-282
5146,-309,4128,-282
5147,-309,4128,-273
5148,-342,4179,-273
5149,-339,4179,-228
5150,-339,4212,-141
5151,-336,4161,-141
5152,-336,4161,-198
5153,-303,4149,-198
5154,-423,4149,-117
5155,-423,4221,-198
5156,-438,4149,-198
5157,-516,4149,-153
5158,-516,4086,-153
5159,-528,4086,-156
5160,-528,3993,-192
5161,-534,3984,-192
5162,-552,3984,-306
5163,-552,4023,-273
5164,-471,4023,-273
5165,-471,4080,-201
5166,-441,4038,-201
5167,-438,4038,-213
5168,-438,4047,-186
5169,-426,4047,-186
5170,-426,3999,-192
5171,-462,3999,-192
5172,-489,3999,-186
5173,-489,4041,-183
5174,-450,4077,-183
5175,-450,4077,-171
5176,-402,4062,-171
5177,-372,4062,-198
5178,-372,4140,-168
5179,-363,4131,-168
5180,-363,4131,-201
5181,-282,4182,-201
5182,-264,4182,-216
5183,-264,4131,-288
5184,-243,4095,-288
5185,-291,4095,-243
5186,-291,4131,-243
5187,-327,4131,-243
5188,-327,4125,-198
5189,-363,4131,-198
5190,-342,4131,-171
5191,-342,4164,-117
5192,-363,4164,-117
5193,-363,4200,-153
5194,-405,4170,-153
5195,-441,4170,-93
5196,-441,4035,-126
5197,-477,4035,-126
5198,-477,4017,-192
5199,-459,4005,-192
5200,-426,4005,-198
5201,-426,4026,-258
5202,-495,4110,-258
5203,-495,4110,-261
5204,-462,4095,-261
5205,-483,4095,-186
5206,-483,4083,-192
5207,-438,4074,-192
5208,-438,4074,-108
5209,-441,4062,-108
5210,-507,4062,-201
5211,-507,4056,-237
5212,-438,4047,-237
5213,-387,4047,-186
5214,-387,4029,-243
5215,-342,4029,-243
5216,-342,4011,-192
5217,-309,4032,-192
5218,-291,4032,-258
5219,-291,4074,-318
5220,-288,4074,-318
5221,-288,4095,-306
5222,-357,4116,-306
5223,-273,4116,-201
5224,-273,4194,-321
5225,-291,4194,-321
5226,-291,4194,-177
5227,-336,4200,-177
5228,-351,4200,-171
5229,-351,4185,-258
5230,-339,4146,-258
5231,-378,4146,-198
5232,-378,4140,-198
5233,-450,4140,-102
5234,-450,4080,-21
5235,-441,4041,-21
5236,-471,4041,-27
5237,-471,3993,-96
5238,-465,3993,-96
5239,-465,4005,-162
5240,-462,4032,-162
5241,-492,4032,-141
5242,-492,4014,-198
5243,-471,4014,-198
5244,-471,4011,-261
5245,-447,3966,-261
5246,-501,3966,-372
5247,-501,3945,-321
5248,-513,3948,-321
5249,-513,3948,-399
5250,-534,3978,-399
5251,-564,3978,-369
5252,-564,4032,-384
5253,-513,4056,-384
5254,-513,4056,-306
5255,-546,4077,-306
5256,-483,4077,-291
5257,-483,4197,-198
5258,-405,4245,-198
5259,-405,4245,-156
5260,-405,4242,-81
5261,-273,4242,-81
5262,-273,4233,-51
5263,-270,4299,-51
5264,-285,4299,-12
5265,-285,4239,-36
5266,-363,4239,-36
5267,-363,4158,-93
5268,-357,4107,-93
5269,-351,4107,-153
5270,-351,4005,-111
5271,-396,4002,-111
5272,-396,4002,-228
5273,-369,4011,-228
5274,-267,4011,-156
5275,-267,4044,-222
5276,-237,4077,-222
5277,-237,4077,-261
5278,-249,4098,-261
5279,-303,4098,-273
5280,-303,4080,-318
5281,-345,4047,-318
5282,-357,4047,-282
5283,-357,3990,-282
5284,-429,3990,-342
5285,-429,3981,-354
5286,-474,3954,-354
5287,-450,3954,-333
5288,-450,4005,-306
5289,-456,4005,-306
5290,-456,3996,-267
5291,-405,4119,-267
5292,-414,4119,-198
5293,-414,4146,-228
5294,-450,4101,-228
5295,-450,4101,-201
5296,-558,4116,-201
5297,-492,4116,-168
5298,-492,4017,-111
5299,-531,4104,-111
5300,-531,4104,-123
5301,-513,4236,-123
5302,-477,4236,-201
5303,-477,4203,-228
5304,-516,4137,-228
5305,-423,4137,-168
5306,-423,4041,-153
5307,-375,4041,-153
5308,-375,4041,-126
5309,-300,4038,-126
5310,-282,4038,-126
5311,-282,4053,-153
5312,-255,4053,-153
5313,-255,4116,-123
5314,-249,4110,-123
5315,-276,4110,-132
5316,-276,4113,-201
5317,-324,4101,-201
5318,-324,4101,-237
5319,-345,4032,-237
5320,-381,4032,-291
5321,-381,4011,-402
5322,-405,3924,-402
5323,-414,3924,-459
5324,-414,3912,-459
5325,-408,3912,-447
5326,-408,3894,-399
5327,-342,3951,-399
5328,-357,3951,-393
5329,-357,4056,-282
5330,-339,4056,-282
5331,-339,4176,-282
5332,-432,4314,-282
5333,-474,4314,-171
5334,-474,4314,-93
5335,-543,4314,-93
5336,-543,4290,-147
5337,-585,4230,-147
5338,-582,4230,-228
5339,-582,4179,-246
5340,-582,4059,-246
5341,-582,4059,-303
5342,-474,3927,-303
5343,-381,3927,-288
5344,-381,3888,-297
5345,-333,3909,-297
5346,-222,3909,-288
5347,-222,4065,-288
5348,-213,4065,-198
5349,-213,4146,-243
5350,-207,4206,-243
5351,-243,4206,-126
5352,-243,4209,-177
5353,-276,4209,-177
5354,-276,4251,-201
5355,-255,4251,-201
5356,-294,4251,-177
5357,-294,4284,-222
5358,-303,4284,-222
5359,-303,4197,-207
5360,-324,4125,-207
5361,-462,4125,-153
5362,-462,4125,-51
5363,-516,3993,-51
5364,-516,3993,84
5365,-600,4062,84
5366,-831,4062,258
5367,-831,4128,285
5368,-909,4053,285
5369,-813,4053,390
5370,-813,4197,390
5371,-780,4197,576
5372,-780,4308,846
5373,-858,4419,846
5374,-747,4419,900
5375,-747,4614,1017
5376,-804,4614,1017
5377,-804,4659,1098
5378,-720,4770,1098
5379,-507,4770,1212
5380,-507,4830,1227
5381,-357,4830,1227
5382,-357,4941,1302
5383,-348,4800,1302
5384,-417,4800,1167
5385,-417,4731,1191
5386,-561,4644,1191
5387,-561,4644,1137
5388,-681,4554,1137
5389,-606,4554,1116
5390,-606,4482,1143
5391,-651,4497,1143
5392,-651,4497,1152
5393,-663,4509,1152
5394,-678,4509,1053
5395,-678,4431,1137
5396,-666,4401,1137
5397,-762,4401,1161
5398,-762,4491,1251
5399,-813,4491,1251
5400,-813,4449,1137
5401,-762,4329,1137
5402,-687,4329,1293
5403,-687,4233,1407
5404,-699,4233,1407
5405,-699,4365,1587
5406,-555,4281,1587
5407,-615,4281,1614
5408,-615,4368,1734
5409,-576,4320,1734
5410,-576,4320,1785
5411,-636,4299,1785
5412,-633,4299,1734
5413,-633,4185,1755
5414,-693,4032,1755
5415,-645,4032,1785
5416,-645,4035,1785
5417,-837,4035,1989
5418,-837,3948,1974
5419,-912,3960,1974
5420,-705,3960,1995
5421,-705,3999,2031
5422,-693,3999,2031
5423,-693,3834,2226
5424,-702,3768,2226
5425,-762,3768,2235
5426,-762,3804,2235
5427,-681,3804,2235
5428,-681,3699,2265
5429,-738,3450,2265
5430,-771,3450,2436
5431,-771,3324,2547
5432,-873,3336,2547
5433,-873,3336,2490
5434,-723,3318,2490
5435,-669,3318,2622
5436,-669,3207,2676
5437,-693,3150,2676
5438,-768,3150,2772
5439,-768,3243,2772
5440,-840,3243,2736
5441,-840,3057,2856
5442,-780,2865,2856
5443,-678,2865,2883
5444,-678,2799,2943
5445,-666,2799,2943
5446,-666,2799,2982
5447,-783,2715,2982
5448,-666,2715,3027
5449,-666,2568,3027
5450,-585,2568,3027
5451,-585,2484,3033
5452,-696,2412,3033
5453,-750,2412,3123
5454,-750,2379,3084
5455,-723,2145,3084
5456,-723,2145,3255
5457,-513,2142,3255
5458,-705,2142,3384
5459,-705,2274,3369
5460,-807,2088,3369
5461,-807,2088,3363
5462,-705,1971,3363
5463,-573,1971,3513
5464,-573,1887,3480
5465,-555,1992,3480
5466,-549,1992,3519
5467,-549,1896,3519
5468,-465,1896,3435
5469,-465,1605,3348
5470,-408,1407,3348
5471,-447,1407,3378
5472,-447,1365,3429
5473,-327,1365,3429
5474,-327,1362,3495
5475,-366,1227,3495
5476,-132,1227,3363
5477,-132,1239,3273
5478,-153,993,3273
5479,-153,993,3369
5480,-129,945,3369
5481,-210,945,3390
5482,-210,906,3450
5483,-408,537,3450
5484,-408,537,3405
5485,-291,627,3405
5486,-177,627,3279
5487,-177,615,3285
5488,-30,459,3285
5489,-15,459,3240
5490,-15,210,3240
5491,36,210,3099
5492,36,90,2913
5493,-6,45,2913
5494,36,45,2706
5495,36,-213,2646
5496,-27,-213,2646
5497,-27,-402,2643
5498,18,-414,2643
5499,-48,-414,2652
5500,-48,-471,2571
5501,-78,-471,2571
5502,-78,-594,2577
5503,123,-474,2577
5504,111,-474,2568
5505,111,-420,2586
5506,213,-426,2586
5507,213,-426,2601
5508,183,-357,2601
5509,87,-357,2652
5510,87,-312,2727
5511,30,-399,2727
5512,30,-399,2739
5513,-45,-330,2739
5514,-21,-330,2817
5515,-21,-171,2928
5516,-27,-93,2928
5517,-117,-93,2904
5518,-117,-51,2904
5519,-189,-51,2859
5520,-189,-30,3027
5521,-339,9,3027
5522,-327,9,3042
5523,-327,183,3102
5524,-444,183,3102
5525,-444,369,3192
5526,-486,444,3192
5527,-561,444,3234
5528,-561,567,3249
5529,-573,699,3249
5530,-573,699,3279
5531,-567,681,3279
5532,-612,681,3354
5533,-612,804,3489
5534,-618,1068,3489
5535,-618,1068,3468
5536,-486,1473,3468
5537,-522,1473,3531
5538,-522,1350,3555
5539,-963,1254,3555
5540,-1026,1254,3561
5541,-1026,1188,3561
5542,-813,1188,3423
5543,-813,1545,3561
5544,-705,1833,3561
5545,-756,1833,3594
5546,-756,1836,3624
5547,-939,1836,3624
5548,-939,1848,3360
5549,-1155,1926,3360
5550,-1056,1926,3183
5551,-1056,1869,3294
5552,-1116,1869,3294
5553,-1116,2094,3429
5554,-1134,2169,3429
5555,-1269,2169,3243
5556,-1269,2079,3189
5557,-1332,2217,3189
5558,-1332,2217,2937
5559,-1155,2601,2937
5560,-1104,2601,2913
5561,-1104,2355,2979
5562,-927,2337,2979
5563,-927,2337,3048
5564,-876,2499,3048
5565,-783,2499,2838
5566,-783,2760,2721
5567,-612,3096,2721
5568,-636,3096,2892
5569,-636,2859,2958
5570,-732,2859,2958
5571,-732,3228,2607
5572,-567,2901,2607
5573,-852,2901,2811
5574,-852,3108,2934
5575,-747,3108,2934
5576,-747,3507,3012
5577,-714,3573,3012
5578,-705,3573,2913
5579,-705,3777,2892
5580,-747,3750,2892
5581,-747,3750,2883
5582,-921,3855,2883
5583,-1098,3855,2823
5584,-1098,3813,2682
5585,-1200,3699,2682
5586,-1254,3699,2487
5587,-1254,3606,2487
5588,-1239,3606,2340
5589,-1239,3564,2367
5590,-1188,3840,2367
5591,-1011,3840,2169
5592,-1011,4044,2031
5593,-1074,4044,2031
5594,-1074,3858,2049
5595,-1113,3573,2049
5596,-1437,3573,1956
5597,-1437,3708,1764
5598,-1440,3708,1764
5599,-1440,3816,1569
5600,-1545,3744,1569
5601,-1455,3744,1749
5602,-1455,3543,1899
5603,-1443,3897,1899
5604,-1443,3897,1848
5605,-1539,4092,1848
5606,-1551,4092,1683
5607,-1551,4146,1569
5608,-1566,3789,1569
5609,-1566,3789,1680
5610,-1491,3831,1680
5611,-1482,3831,1728
5612,-1482,3981,1635
5613,-1335,4227,1635
5614,-1362,4227,1482
5615,-1362,4416,1482
5616,-1290,4416,1428
5617,-1290,4320,1479
5618,-1200,4149,1479
5619,-1161,4149,1482
5620,-1161,4239,1398
5621,-1113,4239,1398
5622,-1113,4362,1293
5623,-1098,4305,1293
5624,-1185,4305,1143
5625,-1185,4182,1008
5626,-1029,4182,1008
5627,-1029,3945,1056
5628,-1008,4047,1056
5629,-819,4047,1011
5630,-819,4110,897
5631,-789,4233,897
5632,-789,4233,837
5633,-687,4257,837
5634,-696,4257,756
5635,-696,4149,747
5636,-663,4170,747
5637,-663,4170,756
5638,-558,4299,756
5639,-510,4299,687
5640,-510,4356,720
5641,-591,4248,720
5642,-660,4248,711
5643,-660,4239,711
5644,-591,4239,672
5645,-591,4416,687
5646,-654,4449,687
5647,-612,4449,696
5648,-612,4515,672
5649,-651,4515,672
5650,-651,4392,666
5651,-789,4296,666
5652,-1194,4296,681
5653,-1194,4176,1053
5654,-1902,4176,1053
5655,-1902,4374,1788
5656,-1989,4311,1788
5657,-1650,4311,1884
5658,-1650,4308,1392
5659,-831,4227,1392
5660,-831,4227,702
5661,-321,4098,702
5662,210,4098,165
5663,210,3843,-126
5664,171,3852,-126
5665,171,3852,-306
5666,183,3960,-306
5667,0,3960,-462
5668,0,3999,-483
5669,-255,3891,-483
5670,-390,3891,-447
5671,-390,3930,-447
5672,-465,3930,-276
5673,-465,3861,-147
5674,-477,3948,-147
5675,-549,3948,-6
5676,-549,4002,84
5677,-522,4002,84
5678,-522,4131,249
5679,-489,4203,249
5680,-417,4203,258
5681,-417,4191,279
5682,-396,4191,279
5683,-396,4230,213
5684,-339,4335,213
5685,-255,4335,189
5686,-255,4350,78
5687,-228,4257,78
5688,-228,4257,15
5689,-327,4185,15
5690,-423,4185,-51
5691,-423,4128,-123
5692,-483,4059,-123
5693,-483,4059,-153
5694,-564,3981,-153
5695,-648,3981,-186
5696,-648,3909,-216
5697,-618,3888,-216
5698,-585,3888,-216
5699,-585,3906,-216
5700,-546,3906,-192
5701,-546,3957,-192
5702,-531,4026,-192
5703,-432,4026,-93
5704,-432,4107,-87
5705,-405,4107,-87
5706,-405,4134,-12
5707,-408,4215,-12
5708,-462,4215,33
5709,-462,4197,15
5710,-417,4263,15
5711,-417,4263,24
5712,-372,4191,24
5713,-387,4191,-51
5714,-387,4179,-153
5715,-345,4200,-153
5716,-345,4200,-141
5717,-351,4230,-141
5718,-414,4230,-186
5719,-414,4149,-183
5720,-522,4110,-183
5721,-597,4110,-207
5722,-597,4008,-207
5723,-615,4008,-246
5724,-615,3927,-201
5725,-636,3912,-201
5726,-600,3912,-141
5727,-600,3882,-81
5728,-558,3882,-81
5729,-558,3945,-21
5730,-558,3993,-21
5731,-513,3993,-63
5732,-513,4110,-108
5733,-471,4116,-108
5734,-471,4116,-57
5735,-441,4140,-57
5736,-462,4140,-123
5737,-462,4107,-123
5738,-507,4059,-123
5739,-507,4059,-177
5740,-495,4074,-177
5741,-432,4074,-207
5742,-432,4092,-141
5743,-405,4137,-141
5744,-357,4137,-213
5745,-357,4089,-213
5746,-414,4089,-177
5747,-414,4107,-147
5748,-396,4170,-147
5749,-432,4170,-96
5750,-432,4170,-21
5751,-414,4170,-21
5752,-414,4227,-87
5753,-381,4215,-87
5754,-444,4215,-51
5755,-444,4167,-138
5756,-534,4167,-138
5757,-534,4107,-117
5758,-543,4005,-117
5759,-600,4005,-132
5760,-600,3888,-168
5761,-633,3846,-168
5762,-633,3846,-177
5763,-618,3876,-177
5764,-615,3876,-171
5765,-615,3957,-183
5766,-579,3993,-183
5767,-579,3993,-162
5768,-531,4044,-162
5769,-540,4044,-117
5770,-540,4023,-138
5771,-534,4089,-138
5772,-579,4089,-117
5773,-579,4074,-117
5774,-594,4074,-207
5775,-594,4050,-258
5776,-585,4023,-258
5777,-543,4023,-138
5778,-543,3999,-213
5779,-543,3999,-213
5780,-543,3975,-168
5781,-507,4038,-168
5782,-459,4038,-51
5783,-459,4104,-102
5784,-498,4179,-102
5785,-498,4179,-57
5786,-414,4218,-57
5787,-372,4218,-21
5788,-372,4257,-111
5789,-414,4236,-111
5790,-414,4236,-186
5791,-459,4158,-186
5792,-513,4158,-231
5793,-513,4041,-186
5794,-585,4002,-186
5795,-594,4002,-201
5796,-594,4011,-201
5797,-609,4011,-141
5798,-609,3978,-111
5799,-603,3993,-111
5800,-561,3993,-72
5801,-561,4032,-6
5802,-516,4032,-6
5803,-516,4038,-57
5804,-507,4059,-57
5805,-528,4059,-57
5806,-528,4038,-147
5807,-564,4038,-147
5808,-564,4047,-171
5809,-585,4077,-171
5810,-597,4077,-213
5811,-597,4080,-216
5812,-510,4125,-216
5813,-510,4125,-243
5814,-462,4131,-243
5815,-444,4131,-222
5816,-444,4203,-141
5817,-459,4236,-141
5818,-459,4236,-93
5819,-477,4188,-93
5820,-564,4188,-63
5821,-564,4113,-36
5822,-597,4026,-36
5823,-594,4026,-81
5824,-594,4008,-81
5825,-552,4008,-42
5826,-552,3957,-93
5827,-540,4011,-93
5828,-489,4011,-81
5829,-489,4008,-102
5830,-465,4008,-102
5831,-465,3996,-42
5832,-501,4044,-42
5833,-501,4044,-27
5834,-501,4083,-72
5835,-489,4083,-72
5836,-489,4104,-96
5837,-450,4116,-96
5838,-522,4116,-96
5839,-522,4068,-192
5840,-489,4044,-192
5841,-489,4044,-198
5842,-438,4047,-198
5843,-441,4047,-252
5844,-441,4044,-216
5845,-474,4011,-216
5846,-429,4011,-186
5847,-429,4062,-186
5848,-492,4062,-186
5849,-492,4080,-141
5850,-507,4185,-141
5851,-510,4185,-51
5852,-510,4218,3
5853,-516,4218,3
5854,-516,4185,-12
5855,-528,4104,-12
5856,-549,4104,-51
5857,-549,4083,3
5858,-585,4083,3
5859,-585,4008,-78
5860,-612,4008,-78
5861,-558,4008,-162
5862,-558,4005,-156
5863,-489,4017,-156
5864,-489,4017,-198
5865,-507,3984,-198
5866,-432,3984,-126
5867,-432,4002,-156
5868,-489,4053,-156
5869,-489,4053,-108
5870,-405,4011,-108
5871,-402,4011,-18
5872,-402,4074,-78
5873,-465,4089,-78
5874,-489,4089,-81
5875,-489,4077,-81
5876,-528,4077,-171
5877,-528,4044,-186
5878,-501,4023,-186
5879,-483,4023,-111
5880,-483,4023,-216
5881,-516,4023,-216
5882,-516,4014,-186
5883,-459,4026,-186
5884,-474,4026,-207
5885,-474,4002,-201
5886,-462,4053,-201
5887,-462,4053,-186
5888,-471,4083,-186
5889,-465,4083,-183
5890,-465,4152,-141
5891,-459,4221,-141
5892,-459,4221,-36
5893,-363,4290,-36
5894,-426,4290,-48
5895,-426,4254,-126
5896,-474,4215,-126
5897,-522,4215,-78
5898,-522,4140,-78
5899,-531,4140,-81
5900,-531,3972,-96
5901,-498,3957,-96
5902,-426,3957,-147
5903,-426,4002,-171
5904,-336,4002,-171
5905,-336,3993,-177
5906,-312,4026,-177
5907,-201,4026,-63
5908,-201,4209,9
5909,-234,4260,9
5910,-234,4260,30
5911,-315,4296,30
5912,-324,4296,78
5913,-324,4167,15
5914,-462,3993,15
5915,-471,3993,-18
5916,-471,3909,-18
5917,-561,3909,-33
5918,-561,3978,-18
5919,-552,4017,-18
5920,-498,4017,-12
5921,-498,4248,45
5922,-591,4248,45
5923,-591,4158,135
5924,-669,4029,135
5925,-906,4029,219
5926,-906,3984,240
5927,-972,3984,240
5928,-972,4065,336
5929,-939,4119,336
5930,-801,4119,474
5931,-801,4215,630
5932,-756,4509,630
5933,-756,4509,876
5934,-654,4572,876
5935,-717,4572,852
5936,-717,4677,855
5937,-762,4623,855
5938,-717,4623,1011
5939,-717,4407,1011
5940,-735,4407,1083
5941,-735,4209,1101
5942,-780,4185,1101
5943,-813,4185,1083
5944,-813,4155,1161
5945,-834,4155,1161
5946,-834,4335,1116
5947,-714,4425,1116
5948,-600,4425,1197
5949,-600,4461,1197
5950,-579,4419,1197
5951,-579,4419,1236
5952,-594,4548,1236
5953,-573,4548,1227
5954,-573,4533,1308
5955,-417,4437,1308
5956,-417,4437,1317
5957,-471,4431,1317
5958,-528,4431,1464
5959,-528,4551,1434
5960,-669,4611,1434
5961,-858,4611,1473
5962,-858,4590,1473
5963,-927,4590,1509
5964,-927,4605,1539
5965,-1041,4431,1539
5966,-978,4431,1665
5967,-978,4308,1788
5968,-1092,4308,1788
5969,-1092,4458,1689
5970,-972,4410,1689
5971,-825,4410,1728
5972,-825,4392,1890
5973,-660,4392,1890
5974,-660,4584,2061
5975,-723,4461,2061
5976,-1023,4461,2001
5977,-1023,4425,1956
5978,-897,4311,1956
5979,-897,4311,1890
5980,-645,4125,1890
5981,-600,4125,2115
5982,-600,4365,2406
5983,-624,4437,2406
5984,-876,4437,2370
5985,-876,4374,2370
5986,-930,4374,2175
5987,-930,4095,2262
5988,-1008,3951,2262
5989,-858,3951,2376
5990,-858,4014,2436
5991,-954,4014,2436
5992,-954,3954,2466
5993,-927,3801,2466
5994,-696,3801,2355
5995,-696,3564,2475
5996,-444,3564,2475
5997,-444,3555,2583
5998,-390,3603,2583
5999,-615,3603,2661
6000,-615,3438,2571
6001,-573,3030,2571
6002,-573,3030,2751
6003,-390,2907,2751
6004,-348,2907,2838
6005,-348,2805,2973
6006,-504,2814,2973
6007,-504,2814,3012
6008,-366,2625,3012
6009,-375,2625,3099
6010,-375,2520,3174
6011,-426,2472,3174
6012,-597,2472,3213
6013,-597,2316,3213
6014,-735,2316,3210
6015,-735,2145,3078
6016,-618,1782,3078
6017,-585,1782,3072
6018,-585,1614,3123
6019,-597,1614,3123
6020,-597,1599,3012
6021,-567,1608,3012
6022,-402,1608,2928
6023,-402,1410,2934
6024,-447,1050,2934
6025,-447,1050,2889
6026,-354,1059,2889
6027,-342,1059,3033
6028,-342,819,2832
6029,-435,648,2832
6030,-435,648,2877
6031,-465,405,2877
6032,-351,405,2751
6033,-351,330,2892
6034,-339,264,2892
6035,-327,264,2958
6036,-327,240,2958
6037,-222,240,2841
6038,-222,81,2889
6039,-129,-24,2889
6040,-12,-24,2904
6041,-12,9,2949
6042,174,9,2949
6043,174,18,2904
6044,168,9,2904
6045,132,9,2826
6046,132,-135,2727
6047,-81,-291,2727
6048,-81,-291,2691
6049,-9,-387,2691
6050,27,-387,2577
6051,27,-375,2652
6052,9,-540,2652
6053,9,-540,2667
6054,-117,-489,2667
6055,-12,-489,2523
6056,-12,-381,2472
6057,27,-315,2472
6058,159,-315,2400
6059,159,-378,2400
6060,36,-378,2433
6061,36,-378,2523
6062,-24,-381,2523
6063,-21,-381,2553
6064,-21,-192,2601
6065,-126,-192,2601
6066,-126,-96,2676
6067,-270,-33,2676
6068,-405,-33,2721
6069,-405,39,2733
6070,-417,189,2733
6071,-417,189,2721
6072,-120,555,2721
6073,60,555,2868
6074,60,603,2928
6075,9,882,2928
6076,9,882,2868
6077,-129,741,2868
6078,-282,741,2781
6079,-282,939,2922
6080,-435,1191,2922
6081,-354,1191,2871
6082,-354,1578,2871
6083,-429,1578,2907
6084,-429,1401,3024
6085,-435,1530,3024
6086,-660,1530,3003
6087,-660,1755,2832
6088,-525,1755,2832
6089,-525,1836,2778
6090,-438,2256,2778
6091,-417,2256,2943
6092,-417,2223,3042
6093,-513,2556,3042
6094,-513,2556,2808
6095,-504,2916,2808
6096,-336,2916,2430
6097,-336,2718,2847
6098,-579,2706,2847
6099,-579,2706,2877
6100,-372,3243,2877
6101,-624,3243,2763
6102,-624,3192,2628
6103,-720,3183,2628
6104,-906,3183,2643
6105,-906,3429,2643
6106,-1005,3429,2802
6107,-1005,3780,2751
6108,-957,4047,2751
6109,-873,4047,2652
6110,-873,3435,2964
6111,-1119,3435,2964
6112,-1119,3486,2772
6113,-915,4020,2772
6114,-975,4020,2727
6115,-975,4425,2643
6116,-1011,4269,2643
6117,-1011,4269,2748
6118,-1200,3846,2748
6119,-1389,3846,2904
6120,-1389,4068,2787
6121,-1461,4251,2787
6122,-1461,4251,2490
6123,-1437,4533,2490
6124,-1218,4533,2301
6125,-1218,4542,2490
6126,-1269,4422,2490
6127,-1200,4422,2496
6128,-1200,4500,2496
6129,-996,4500,2307
6130,-996,4602,1956
6131,-1095,4593,1956
6132,-891,4593,1719
6133,-891,4101,1884
6134,-885,4101,1884
6135,-885,4506,1965
6136,-789,4467,1965
6137,-747,4467,1878
6138,-747,4515,1698
6139,-909,4515,1698
6140,-909,4515,1557
6141,-948,4518,1557
6142,-981,4518,1482
6143,-981,4455,1488
6144,-1077,4290,1488
6145,-1077,4290,1422
6146,-1128,4257,1422
6147,-1302,4257,1329
6148,-1302,4203,1248
6149,-1233,4206,1248
6150,-1173,4206,1197
6151,-1173,4149,1197
6152,-1062,4149,1233
6153,-1062,4164,1176
6154,-960,4095,1176
6155,-924,4095,1056
6156,-924,4212,906
6157,-786,4212,906
6158,-786,4209,765
6159,-627,4239,765
6160,-471,4239,750
6161,-471,4209,711
6162,-408,4209,711
6163,-408,4236,660
6164,-270,4344,660
6165,-141,4344,624
6166,-141,4347,525
6167,-153,4323,525
6168,-153,4323,429
6169,-66,4413,429
6170,-150,4413,351
6171,-150,4395,435
6172,-48,4329,435
6173,-117,4329,345
6174,-117,4221,345
6175,-204,4221,330
6176,-204,4236,189
6177,-348,4134,189
6178,-750,4134,381
6179,-750,4101,972
6180,-1446,4101,972
6181,-1446,4404,1629
6182,-1566,4524,1629
6183,-1092,4524,1587
6184,-1092,4578,1092
6185,-282,4449,1092
6186,-282,4449,642
6187,90,4311,642
6188,270,4311,189
6189,270,4191,-153
6190,21,4170,-153
6191,21,4170,-297
6192,-99,3960,-297
