sequence,AccelerometerX,AccelerometerY,AccelerometerZ
0,1608,-255,3765
1,1608,-333,3831
2,1569,-297,3831
3,1569,-297,3765
4,1527,-414,3765
5,1194,-414,3645
6,1194,-174,3840
7,1608,-291,3840
8,1608,-291,3786
9,1482,-303,3786
10,1467,-303,3741
11,1467,-321,3690
12,1656,-183,3690
13,1656,-183,3747
14,1437,-222,3747
15,1434,-222,3711
16,1434,-213,3765
17,1752,-213,3765
18,1752,-222,3855
19,1455,18,3855
20,1761,18,4110
21,1761,-273,4101
22,1329,-273,4101
23,1329,-150,3867
24,1788,-60,3867
25,1488,-60,3945
26,1488,276,4476
27,1677,276,4476
28,1677,690,4959
29,2043,1287,4959
30,2292,1287,5220
31,2292,1041,5220
32,2802,1041,5118
33,2802,570,4371
34,2655,-519,4371
35,1473,-519,3936
36,1473,-714,3936
37,744,-714,4263
38,744,288,4878
39,12,1311,4878
40,12,1311,4974
41,-315,846,4974
42,-555,846,4422
43,-555,519,3951
44,-456,1137,3951
45,-456,1137,3594
46,-480,1743,3594
47,-285,1743,3234
48,-285,1866,3129
49,432,891,3129
50,432,891,2748
51,465,234,2748
52,381,234,2295
53,381,321,2079
54,-90,321,2079
55,-90,771,2400
56,-390,465,2400
57,-567,465,2667
58,-567,-219,2418
59,-408,-219,2418
60,-408,-1269,2490
61,-99,-1617,2490
62,-897,-1617,2607
63,-897,-879,2622
64,-1791,-879,2622
65,-1791,-405,3144
66,-1440,-828,3144
67,-1164,-828,3348
68,-1164,-1377,3348
69,-507,-1377,2934
70,-507,-1566,2787
71,243,-1920,2787
72,261,-1920,3729
73,261,-366,3729
74,-306,-366,4068
75,-306,243,3942
76,195,-114,3942
77,195,-114,3762
78,696,-1290,3762
79,918,-1290,4203
80,918,-1527,4782
81,336,-192,4782
82,336,-192,5079
83,-315,762,5079
84,162,762,4848
85,162,1281,4503
86,1425,1296,4503
87,1425,1296,3699
88,2019,1314,3699
89,2211,1314,2943
90,2211,1065,2505
91,2250,1065,2505
92,2250,858,2286
93,1698,1530,2286
94,1605,1530,2055
95,1605,2070,1971
96,1761,2070,1971
97,1761,2799,1926
98,2034,3246,1926
99,2277,3246,1623
100,2277,3480,1152
101,2757,3480,1152
102,2757,3858,570
103,2865,4728,570
104,3261,4728,531
105,3261,5358,531
106,3768,5358,747
107,3768,5895,885
108,3780,5430,885
109,3456,5430,1008
110,3456,5133,1008
111,2904,5133,921
112,2904,4866,675
113,2313,4629,675
114,2313,4629,630
115,1950,4359,630
116,1641,4359,519
117,1641,3957,606
118,1764,4023,606
119,1764,4023,927
120,1467,4593,927
121,1155,4593,1083
122,1155,4902,1068
123,1149,4902,1068
124,1149,5037,912
125,1293,4875,912
126,1302,4875,792
127,1302,4761,690
128,1287,4761,690
129,1287,4806,555
130,1551,4623,555
131,1614,4623,555
132,1614,4425,594
133,1143,4425,594
134,1143,4206,594
135,306,4446,594
136,-270,4446,600
137,-270,4614,600
138,-291,4614,624
139,-291,4476,666
140,-120,4200,666
141,-120,4200,636
142,12,4014,636
143,138,4014,426
144,138,4041,300
145,141,3687,300
146,141,3687,405
147,99,3642,405
148,111,3642,399
149,111,3741,414
150,108,3987,414
151,108,3987,381
152,144,4023,381
153,114,4023,204
154,114,4089,210
155,264,4089,210
156,264,4146,240
157,249,4242,240
158,-39,4242,153
159,-39,4272,153
160,-255,4272,153
161,-255,4167,120
162,-486,4008,120
163,-564,4008,135
164,-564,4044,129
165,-645,4044,129
166,-645,4050,129
167,-660,4050,129
168,-666,4050,-18
169,-666,3993,-18
170,-549,3993,15
171,-549,4005,-51
172,-612,3840,-51
173,-735,3840,-108
174,-735,3894,-108
175,-759,3894,-177
176,-759,3966,-318
177,-489,4074,-318
178,-489,4074,-312
179,-249,4050,-312
180,-27,4050,-372
181,-27,4074,-273
182,-15,4155,-273
183,-15,4155,-357
184,-165,4464,-357
185,-339,4464,-312
186,-339,4617,-282
187,-390,4554,-282
188,-390,4554,-171
189,-360,4308,-171
190,-495,4308,-102
191,-495,4359,-33
192,-546,4359,-33
193,-546,4524,48
194,-564,4584,48
195,-303,4584,0
196,-303,4401,-21
197,-144,4401,-21
198,-144,4128,-12
199,-309,4047,-12
200,-597,4047,-57
201,-597,4065,-72
202,-627,4065,-72
203,-627,3903,-51
204,-558,3972,-51
205,-564,3972,-51
206,-564,4056,-51
207,-564,4056,-78
208,-564,4044,-153
209,-660,3903,-153
210,-903,3903,-282
211,-903,3984,-282
212,-882,3984,-321
213,-882,4038,-354
214,-534,4104,-354
215,-534,4104,-327
216,-372,4146,-327
217,-363,4146,-252
218,-363,4026,-246
219,-603,4026,-246
220,-603,4026,-102
221,-765,4077,-102
222,-633,4077,-6
223,-633,4113,-48
224,-342,4125,-48
225,-342,4125,-36
226,-270,4050,-36
227,-405,4050,30
228,-405,4038,-87
229,-609,4038,-87
230,-609,3987,-168
231,-552,3978,-168
232,-387,3978,-156
233,-387,3927,-51
234,-375,3927,-51
235,-375,3996,15
236,-591,4167,15
237,-591,4167,-27
238,-591,4077,-18
239,-585,4077,-18
240,-585,4017,-123
241,-477,4065,-123
242,-429,4065,-93
243,-429,4140,-93
244,-459,4140,-117
245,-459,4095,-156
246,-510,4107,-156
247,-465,4107,-87
248,-465,4143,-87
249,-423,4143,-93
250,-423,4137,-93
251,-345,4113,-93
252,-345,4113,-132
253,-405,3987,-132
254,-498,3987,-96
255,-498,4002,-27
256,-615,4032,-27
257,-615,4032,-96
258,-648,4035,-96
259,-543,4035,9
260,-543,4029,3
261,-438,4044,3
262,-438,4044,-42
263,-438,4095,-42
264,-474,4095,-81
265,-474,4068,-108
266,-492,4068,-108
267,-492,4083,-93
268,-507,4029,-93
269,-432,4029,-78
270,-432,4029,-96
271,-420,4029,-96
272,-420,4083,-42
273,-441,4080,-42
274,-522,4080,-78
275,-522,4041,-78
276,-567,4041,-93
277,-567,4023,-126
278,-459,4080,-126
279,-393,4080,-171
280,-393,4032,-171
281,-372,4032,-126
282,-372,4023,-111
283,-414,4038,-111
284,-414,4038,-192
285,-441,4104,-192
286,-429,4104,-153
287,-429,4095,-153
288,-450,4059,-153
289,-450,4059,-111
290,-429,4056,-111
291,-408,4056,-138
292,-408,4098,-93
293,-441,4098,-93
294,-441,4149,-51
295,-480,4134,-51
296,-591,4134,33
297,-591,4152,-48
298,-561,4152,-48
299,-561,4098,-6
300,-513,4116,-6
301,-456,4116,-27
302,-456,4125,-48
303,-516,4125,-48
304,-516,4068,-42
305,-564,4086,-42
306,-564,4086,-138
307,-564,4092,-138
308,-483,4092,-117
309,-483,4086,-108
310,-456,4068,-108
311,-456,4068,-171
312,-456,4080,-171
313,-459,4080,-132
314,-459,4065,-117
315,-411,4095,-117
316,-411,4095,-108
317,-423,4104,-108
318,-420,4104,-141
319,-420,4104,-111
320,-441,4062,-111
321,-441,4062,-33
322,-498,4116,-33
323,-360,4116,-96
324,-360,4128,120
325,-228,4089,120
326,-228,4089,210
327,-369,4452,210
328,-354,4452,-93
329,-354,4389,-87
330,-429,4389,-87
331,-429,4317,249
332,-264,4119,249
333,-201,4119,336
334,-201,3942,153
335,-237,3942,153
336,-237,3756,39
337,-378,4443,39
338,-396,4443,225
339,-396,5109,225
340,99,5109,660
341,99,3264,-117
342,-477,3003,-117
343,-816,3003,-372
344,-816,3327,-372
345,-492,3327,-273
346,-492,4602,258
347,9,5043,258
348,9,5043,444
349,-585,4038,444
350,-885,4038,225
351,-885,3417,234
352,-531,4023,234
353,-531,4023,456
354,-153,4227,456
355,-282,4227,534
356,-282,3993,399
357,-576,3648,399
358,-576,3648,108
359,-573,3882,108
360,207,3882,183
361,207,4596,399
362,630,4596,399
363,630,4206,138
364,-465,3705,138
365,-564,3705,0
366,-564,4059,129
367,156,4059,129
368,156,4167,159
369,165,4008,159
370,-408,4008,204
371,-408,3831,24
372,-165,3831,24
373,-165,4125,135
374,-444,3966,135
375,-252,3966,30
376,-252,4029,30
377,-33,4029,60
378,-33,4296,168
379,30,4428,168
380,30,4428,204
381,-300,4143,204
382,3,4143,90
383,3,4041,84
384,324,4197,84
385,324,4197,93
386,198,4221,93
387,213,4221,30
388,213,4149,-66
389,18,4098,-66
390,18,4098,-93
391,-144,4035,-93
392,-78,4035,-138
393,-78,4068,-117
394,0,4068,-117
395,0,4161,-42
396,-84,4095,-42
397,-219,4095,-6
398,-219,4191,-21
399,-501,4191,-21
400,-501,3891,-102
401,-99,4230,-102
402,228,4230,60
403,228,4161,-6
404,-138,4161,-6
405,-138,4176,30
406,-111,4008,30
407,-111,4008,3
408,-111,4197,84
409,21,4197,84
410,21,4170,-27
411,39,4116,-27
412,-36,4116,-48
413,-36,4119,-48
414,-126,4119,-63
415,-126,4074,-72
416,-168,4014,-72
417,-243,4014,-102
418,-243,4134,-102
419,-90,4134,0
420,-90,4104,-111
421,-162,4107,-111
422,-162,4107,-21
423,-168,4119,-21
424,-78,4119,-33
425,-78,4062,-96
426,-114,4050,-96
427,-114,4050,-42
428,-126,4110,-42
429,-165,4110,0
430,-165,4059,-33
431,-111,4059,-33
432,-111,4080,-6
433,-33,4140,-6
434,-75,4140,-21
435,-75,4119,-78
436,-117,4119,-78
437,-117,4119,-48
438,-153,4104,-48
439,-225,4104,-21
440,-225,4050,-12
441,-60,4050,-12
442,-60,4101,30
443,156,4257,30
444,105,4257,120
445,105,4173,120
446,297,4173,114
447,297,4221,198
448,300,4257,198
449,-354,4257,300
450,-354,4062,300
451,-561,4062,336
452,-561,3978,354
453,-390,4335,354
454,-390,4335,576
455,-234,4260,576
456,-486,4260,882
457,-486,4329,1146
458,-636,4356,1146
459,-636,4356,1272
460,-618,4323,1272
461,-258,4323,1242
462,-258,4251,1620
463,114,4734,1620
464,114,4734,2055
465,24,4632,2055
466,-60,4632,2019
467,-60,4737,2040
468,-117,4890,2040
469,-117,4890,2325
470,-153,5115,2325
471,147,5115,2571
472,147,5172,2451
473,-378,5172,2451
474,-378,4830,2229
475,-348,4800,2229
476,306,4800,2292
477,306,5163,2322
478,234,5163,2322
479,234,4875,2214
480,234,5085,2214
481,735,5085,2361
482,735,5118,2397
483,363,5118,2397
484,363,4950,2280
485,780,4947,2280
486,1425,4947,2367
487,1425,5028,2466
488,504,5028,2466
489,504,4713,2430
490,-132,4605,2430
491,60,4605,2598
492,60,4941,2598
493,648,4941,2928
494,648,4839,2838
495,939,4752,2838
496,-456,4752,2697
497,-456,4050,2697
498,-1221,4050,2382
499,-1221,3879,2445
500,303,4416,2445
501,303,4416,2787
502,960,4200,2787
503,1077,4200,2721
504,1077,4062,2598
505,180,3234,2598
506,180,3234,2169
507,39,3039,2169
508,591,3039,2391
509,591,3273,2592
510,510,3423,2592
511,510,3423,2550
512,1122,2919,2550
513,2700,2919,2346
514,2700,2985,2712
515,1710,2985,2712
516,1710,2730,2517
517,108,1887,2517
518,-216,1887,2322
519,-216,1527,2502
520,300,1527,2502
521,300,1563,2943
522,609,1671,2943
523,225,1671,3177
524,225,1626,3177
525,546,1626,3129
526,546,1602,3129
527,1419,1320,3129
528,1311,1320,2928
529,1311,852,2928
530,297,852,2841
531,297,654,2928
532,-255,780,2928
533,-255,780,3078
534,-210,753,3078
535,612,753,3183
536,612,717,2979
537,1557,465,2979
538,1557,465,2706
539,1323,96,2706
540,477,96,2532
541,477,-93,2682
542,132,15,2682
543,132,15,2808
544,696,-18,2808
545,1245,-18,2673
546,1245,-288,2523
547,1140,-288,2523
548,1140,-396,2598
549,780,-606,2598
550,819,-606,2661
551,819,-495,2997
552,873,-495,2997
553,873,-426,3279
554,405,-453,3279
555,540,-453,3204
556,540,-633,3039
557,696,-633,3039
558,696,-828,2883
559,1236,-654,2883
560,1431,-654,3114
561,1431,-537,3420
562,990,-537,3420
563,990,-501,3495
564,420,-786,3495
565,438,-786,3300
566,438,-888,3300
567,1110,-888,3138
568,1110,-915,3369
569,1347,-591,3369
570,975,-591,3705
571,975,-585,3705
572,381,-585,3711
573,381,-675,3534
574,666,-729,3534
575,666,-729,3393
576,1008,-810,3393
577,831,-810,3273
578,831,-795,3465
579,1191,-600,3465
580,1191,-600,3630
581,1137,-594,3630
582,999,-594,3645
583,999,-669,3591
584,657,-756,3591
585,657,-756,3609
586,225,-951,3609
587,420,-951,3591
588,420,-684,3714
589,903,-684,3714
590,903,-522,3762
591,915,-486,3762
592,867,-486,3600
593,867,-762,3498
594,684,-762,3498
595,684,-711,3561
596,540,-699,3561
597,588,-699,3483
598,588,-621,3324
599,591,-621,3324
600,591,-603,3381
601,837,-405,3381
602,918,-405,3456
603,918,-387,3456
604,690,-387,3381
605,690,-621,3228
606,162,-753,3228
607,90,-753,3129
608,90,-396,3129
609,768,-396,3114
610,768,-399,3279
611,948,-354,3279
612,948,-354,3420
613,456,-456,3420
614,147,-456,3390
615,147,-315,3465
616,60,-291,3465
617,60,-291,3720
618,345,6,3720
619,555,6,3831
620,555,237,3684
621,315,-75,3684
622,315,-75,3735
623,435,186,3735
624,522,186,4122
625,522,414,4047
626,213,414,4047
627,213,417,3690
628,255,225,3690
629,552,225,3867
630,552,489,4287
631,453,489,4287
632,453,603,4317
633,-90,831,4317
634,156,831,3564
635,156,135,3450
636,555,135,3450
637,555,840,3684
638,573,1005,3684
639,288,1005,3621
640,288,1197,3621
641,60,1197,2658
642,60,963,2355
643,1419,651,2355
644,933,651,2853
645,933,921,2853
646,-360,921,3489
647,-360,1377,3735
648,-342,1653,3735
649,-342,1653,3495
650,735,1440,3495
651,771,1440,3519
652,771,1671,3630
653,192,1686,3630
654,192,1686,3465
655,12,1947,3465
656,117,1947,3159
657,117,1869,3270
658,942,1869,3270
659,942,1971,4035
660,804,2436,4035
661,219,2436,4392
662,219,2559,3942
663,-453,2559,3942
664,-453,2295,3210
665,-213,1728,3210
666,762,1728,3435
667,762,2793,4101
668,1086,2793,4101
669,1086,2964,4041
670,426,2574,4041
671,-633,2574,3453
672,-633,2466,3453
673,-81,2466,2847
674,-81,2460,3033
675,519,2634,3033
676,900,2634,3288
677,900,3087,3288
678,990,3087,3756
679,990,3243,3561
680,78,3105,3561
681,78,3105,3174
682,-1194,2973,3174
683,-1137,2973,2913
684,-1137,2811,2868
685,-297,3132,2868
686,-297,3132,2877
687,351,3147,2877
688,822,3147,2979
689,822,3651,2997
690,576,3378,2997
691,576,3378,2982
692,60,3147,2982
693,-297,3147,2781
694,-297,3072,2541
695,-168,3072,2541
696,-168,3366,2301
697,123,3654,2301
698,903,3654,2235
699,903,3666,2472
700,921,3666,2472
701,921,3795,2457
702,582,3591,2457
703,225,3591,2085
704,225,3339,2091
705,-108,3339,2091
706,-108,3636,2286
707,-660,3678,2286
708,-636,3678,2235
709,-636,3717,2235
710,75,3717,2076
711,75,3831,1974
712,624,3990,1974
713,993,3990,1809
714,993,4017,1809
715,1038,4017,1914
716,1038,4044,1989
717,954,4374,1989
718,954,4374,2046
719,966,4335,2046
720,732,4335,1989
721,732,4134,2019
722,816,4017,2019
723,816,4017,2100
724,783,4503,2100
725,366,4503,2292
726,366,4440,2199
727,132,4260,2199
728,132,4260,1941
729,207,4329,1941
730,450,4329,1809
731,450,4242,1725
732,627,4242,1725
733,627,4299,1869
734,9,4071,1869
735,-723,4071,1818
736,-723,3876,1770
737,-825,3876,1770
738,-825,3729,1743
739,-618,3837,1743
740,-354,3837,1680
741,-354,3885,1695
742,93,3885,1695
743,93,3936,1584
744,264,3957,1584
745,-81,3957,1557
746,-81,3837,1557
747,-342,3837,1572
748,-342,3975,1635
749,-270,4086,1635
750,72,4086,1527
751,72,4083,1527
752,123,4083,1488
753,123,4062,1359
754,-150,3996,1359
755,-150,3996,1167
756,-108,4131,1167
757,183,4131,1266
758,183,4344,1329
759,255,4050,1329
760,255,4050,1122
761,264,3987,1122
762,48,3987,1047
763,48,3882,912
764,-429,3828,912
765,-429,3828,795
766,-324,3972,795
767,63,3972,915
768,63,4095,906
769,159,4095,906
770,159,3981,786
771,81,3933,786
772,-90,3933,747
773,-90,3834,711
774,-81,3834,711
775,-81,3906,726
776,144,4104,726
777,288,4104,786
778,288,4131,840
779,267,4131,840
780,267,4071,861
781,105,3846,861
782,-189,3846,852
783,-189,3921,852
784,-39,3921,876
785,-39,3999,927
786,123,4038,927
787,333,4038,972
788,333,3951,972
789,237,3951,987
790,237,3927,906
791,-66,3960,906
792,-66,3960,930
793,-48,4005,930
794,48,4005,951
795,48,4023,957
796,138,4041,957
797,138,4041,870
798,183,3969,870
799,18,3969,891
800,18,3918,930
801,21,4137,930
802,21,4137,978
803,174,4131,978
804,96,4131,927
805,96,3987,855
806,48,3960,855
807,48,3960,906
808,174,4050,906
809,-135,4050,891
810,-135,4014,915
811,-27,4014,915
812,-27,3933,837
813,87,3879,837
814,99,3879,807
815,99,3999,825
816,36,3999,825
817,36,3945,810
818,-60,4008,810
819,-93,4008,732
820,-93,3924,777
821,-33,3924,777
822,-33,3876,750
823,18,4038,750
824,48,4038,867
825,48,3963,867
826,18,3963,807
827,18,3993,822
828,180,3996,822
829,117,3996,852
830,117,4023,852
831,63,4023,906
832,63,4020,1071
833,-33,3813,1071
834,-33,3813,1347
835,-453,3840,1347
836,-723,3840,1572
837,-723,4113,1785
838,-555,4293,1785
839,-555,4293,1875
840,-384,4059,1875
841,-600,4059,1893
842,-600,4029,1905
843,-633,4077,1905
844,-633,4077,1950
845,-456,4179,1950
846,-159,4179,2151
847,-159,4257,2466
848,-51,4302,2466
849,-51,4302,2577
850,-222,4392,2577
851,-627,4392,2517
852,-627,4416,2430
853,-327,4416,2430
854,-327,4416,2277
855,270,4422,2277
856,771,4422,2355
857,771,4677,2361
858,702,4677,2361
859,702,4527,2262
860,117,4125,2262
861,-108,4125,2241
862,-108,4287,2241
863,132,4287,2337
864,132,4335,2415
865,300,4308,2415
866,288,4308,2361
867,288,4152,2361
868,444,4152,2421
869,444,3879,2562
870,165,4047,2562
871,165,4047,2661
872,-39,4056,2661
873,-6,4056,2736
874,-6,3981,2688
875,432,3861,2688
876,432,3861,2973
877,780,4137,2973
878,582,4137,3189
879,582,4053,3168
880,348,3939,3168
881,348,3939,3024
882,-321,3600,3024
883,-393,3600,2979
884,-393,3438,3129
885,144,3660,3129
886,144,3660,3273
887,468,3738,3273
888,882,3738,3153
889,882,3660,3168
890,1266,3660,3168
891,1266,3327,2943
892,975,2958,2943
893,783,2958,2928
894,783,3039,3210
895,237,3039,3210
896,237,3180,3174
897,0,2754,3174
898,483,2754,3078
899,483,2409,3078
900,819,2409,3132
901,819,2478,3285
902,594,2406,3285
903,819,2406,3333
904,819,2247,3333
905,657,2247,3405
906,657,2157,3420
907,597,1896,3420
908,597,1896,3453
909,180,1755,3453
910,24,1755,3285
911,24,1611,3144
912,630,1413,3144
913,630,1413,3228
914,1104,1449,3228
915,1482,1449,3438
916,1482,1515,3399
917,1023,1329,3399
918,1023,1329,3354
919,873,885,3354
920,465,885,3495
921,465,774,3759
922,174,774,3759
923,174,792,3771
924,678,1011,3771
925,1227,1011,3759
926,1227,765,3669
927,897,765,3669
928,897,540,3378
929,777,156,3378
930,870,156,2973
931,870,36,2922
932,867,36,2922
933,867,-84,2847
934,936,3,2847
935,1677,3,2757
936,1677,333,2757
937,2916,333,2877
938,2916,66,2712
939,2544,-288,2712
940,1527,-288,2682
941,1527,-720,2682
942,735,-720,2592
943,735,-795,2697
944,552,-693,2697
945,552,-693,3078
946,660,-678,3078
947,858,-678,3117
948,858,-777,2943
949,1146,-999,2943
950,1146,-999,2712
951,1452,-1074,2712
952,1674,-1074,2607
953,1674,-996,2487
954,1554,-1104,2487
955,1554,-1104,2556
956,999,-1158,2556
957,633,-1158,2652
958,633,-1368,2718
959,573,-1368,2718
960,573,-1302,2673
961,1011,-1125,2673
962,1749,-1125,2676
963,1749,-1017,2808
964,2106,-1017,2808
965,2106,-1002,2982
966,1680,-1074,2982
967,975,-1074,2928
968,975,-1245,2949
969,924,-1245,2949
970,924,-1209,2982
971,1212,-1164,2982
972,1395,-1164,3132
973,1395,-1077,3132
974,1368,-1077,3129
975,1368,-921,2982
976,1452,-1050,2982
977,1638,-1050,2952
978,1638,-1077,2952
979,1335,-1077,3198
980,1335,-987,3393
981,936,-894,3393
982,936,-894,3273
983,804,-984,3273
984,1263,-984,3084
985,1263,-846,3204
986,1431,-930,3204
987,1431,-930,3249
988,1557,-786,3249
989,1350,-786,3333
990,1350,-750,3399
991,1254,-651,3399
992,1254,-651,3423
993,1236,-639,3423
994,1200,-639,3375
995,1200,-684,3279
996,1122,-684,3279
997,1122,-594,3123
998,1296,-459,3123
999,1155,-459,3093
1000,1155,-390,2853
1001,819,-390,2853
1002,819,-636,2742
1003,726,-525,2742
1004,921,-525,2928
1005,921,-264,2874
1006,1263,-264,2874
1007,1263,-318,2997
1008,1920,84,2997
1009,1956,84,3444
1010,1956,210,3654
1011,1311,210,3654
1012,1311,174,3384
1013,666,306,3384
1014,1521,306,3102
1015,1521,126,3102
1016,1650,126,3132
1017,1650,363,3465
1018,1593,594,3465
1019,1593,594,3525
1020,948,684,3525
1021,702,684,3270
1022,702,474,3393
1023,924,759,3393
1024,924,759,3606
1025,714,924,3606
1026,-99,924,3510
1027,-99,834,3138
1028,414,1149,3138
1029,414,1149,3255
1030,1344,1542,3255
1031,786,1542,3534
1032,786,1260,3531
1033,-282,1260,3531
1034,-282,1455,3225
1035,-210,1206,3225
1036,771,1206,3279
1037,771,1941,3639
1038,771,1941,3639
1039,771,2520,3720
1040,651,2247,3720
1041,78,2247,3288
1042,78,1647,3249
1043,837,1647,3249
1044,837,2172,3564
1045,933,2757,3564
1046,207,2757,3378
1047,207,3135,3378
1048,1206,3135,2637
1049,1206,2007,2967
1050,1395,2886,2967
1051,1395,2886,3450
1052,741,3027,3450
1053,-102,3027,3405
1054,-102,3120,2937
1055,-471,2928,2937
1056,-471,2928,2871
1057,468,3111,2871
1058,1164,3111,3546
1059,1164,3786,3801
1060,855,3678,3801
1061,855,3678,3132
1062,-402,3036,3132
1063,-288,3036,2526
1064,-288,2808,2757
1065,867,2808,2757
1066,867,3642,3363
1067,1176,4176,3363
1068,831,4176,3348
1069,831,3960,2847
1070,345,3960,2847
1071,345,3597,2763
1072,474,3915,2763
1073,495,3915,2778
1074,495,4086,2778
1075,213,4086,2778
1076,213,4053,2427
1077,-147,3987,2427
1078,90,3987,2061
1079,90,4038,2055
1080,1122,4038,2055
1081,1122,3918,2340
1082,1095,4260,2340
1083,420,4260,2346
1084,420,4143,2346
1085,-63,4143,2196
1086,-63,4182,1890
1087,-162,4245,1890
1088,219,4245,1734
1089,219,4206,1734
1090,450,4206,1665
1091,450,3981,1518
1092,474,3996,1518
1093,474,3996,1572
1094,249,4098,1572
1095,-81,4098,1638
1096,-81,4047,1497
1097,12,4191,1497
1098,12,4191,1407
1099,564,4293,1407
1100,666,4293,1293
1101,666,4194,1248
1102,432,4164,1248
1103,432,4164,1329
1104,180,4290,1329
1105,402,4290,1422
1106,402,4353,1422
1107,579,4353,1422
1108,579,4428,1338
1109,363,4260,1338
1110,-57,4260,1452
1111,-57,4329,1635
1112,-258,4329,1635
1113,-258,4464,1848
1114,-234,4500,1848
1115,-93,4500,1650
1116,-93,4431,1650
1117,-189,4431,1542
1118,-189,4395,1467
1119,-150,4164,1467
1120,-99,4164,1248
1121,-99,4089,1248
1122,-63,4089,1218
1123,-63,4152,1197
1124,-102,4227,1197
1125,-102,4227,1146
1126,-264,4182,1146
1127,-297,4182,1176
1128,-297,4287,855
1129,-321,4038,855
1130,-321,4038,870
1131,-609,3903,870
1132,-576,3903,771
1133,-576,3975,717
1134,-456,4050,717
1135,-456,4050,666
1136,-357,4215,666
1137,-234,4215,615
1138,-234,4209,510
1139,-210,4209,510
1140,-210,4134,390
1141,-114,4092,390
1142,-48,4092,264
1143,-48,3948,270
1144,-51,3948,270
1145,-51,3876,288
1146,-111,4005,288
1147,-126,4005,321
1148,-126,4038,321
1149,-111,4038,321
1150,-111,4137,270
1151,-45,4170,270
1152,-51,4170,249
1153,-51,4077,249
1154,-30,4077,165
1155,-30,3957,189
1156,-201,3996,189
1157,-369,3996,309
1158,-369,4092,309
1159,-222,4092,354
1160,-222,4179,354
1161,-144,4221,354
1162,-144,4221,375
1163,-45,4209,375
1164,-57,4209,300
1165,-57,4182,315
1166,-102,4158,315
1167,-102,4158,264
1168,-132,4194,264
1169,-183,4194,285
1170,-183,4206,243
1171,-165,4200,243
1172,-165,4200,198
1173,-144,4119,198
1174,-222,4119,123
1175,-222,4023,39
1176,-270,4023,39
1177,-270,4044,63
1178,-198,4026,63
1179,-198,4026,30
1180,-198,4017,69
1181,-126,4017,69
1182,-126,4077,54
1183,-273,4011,54
1184,-219,4011,93
1185,-219,4077,153
1186,-12,4077,153
1187,-12,4101,183
1188,-42,4125,183
1189,-93,4125,204
1190,-93,4185,204
1191,-189,4185,228
1192,-189,4065,213
1193,-291,4044,213
1194,-249,4044,144
1195,-249,3996,144
1196,-249,3996,123
1197,-249,4086,204
1198,-237,4158,204
1199,-237,4158,144
1200,-240,4110,144
1201,-183,4110,129
1202,-183,4044,138
1203,-240,3993,138
1204,-240,3993,93
1205,-240,4146,93
1206,-150,4146,153
1207,-150,4131,108
1208,-120,4092,108
1209,-120,4092,93
1210,-168,4008,93
1211,-120,4008,105
1212,-120,4074,138
1213,-219,4074,138
1214,-219,4089,138
1215,-240,4101,138
1216,-132,4101,105
1217,-132,4161,150
1218,-102,4161,150
1219,-102,4140,165
1220,-168,4086,165
1221,-252,4086,153
1222,-252,4089,210
1223,-228,4089,210
1224,-228,4113,153
1225,-228,4131,153
1226,-186,4131,105
1227,-186,4092,105
1228,-171,4092,63
1229,-171,4089,120
1230,-168,4038,120
1231,-270,4038,189
1232,-270,4026,189
1233,-252,4026,144
1234,-252,4128,153
1235,-228,4068,153
1236,-228,4068,129
1237,-189,4077,129
1238,-246,4077,54
1239,-246,4083,78
1240,-201,4068,78
1241,-201,4068,90
1242,-183,4119,90
1243,-264,4119,198
1244,-264,4035,75
1245,-282,4110,75
1246,-282,4110,165
1247,-219,4107,165
1248,-195,4107,138
1249,-195,4080,198
1250,-213,4080,198
1251,-213,4077,180
1252,-210,4062,180
1253,-195,4062,213
1254,-195,4158,78
1255,-249,4158,78
1256,-249,4065,99
1257,-267,4074,99
1258,-222,4074,60
1259,-222,4017,63
1260,-354,4017,63
1261,-354,4113,69
1262,-306,4074,69
1263,-216,4074,90
1264,-216,4143,90
1265,-144,4143,84
1266,-144,4125,135
1267,-114,4191,135
1268,-141,4191,99
1269,-141,4113,99
1270,-315,4113,120
1271,-315,4053,78
1272,-321,4026,78
1273,-321,4026,144
1274,-216,4152,144
1275,-186,4152,138
1276,-186,4134,129
1277,-177,4053,129
1278,-177,4053,123
1279,-279,4074,123
1280,-309,4074,150
1281,-309,4062,168
1282,-273,4062,168
1283,-273,4107,93
1284,-291,4110,93
1285,-285,4110,93
1286,-285,4086,54
1287,-222,4086,54
1288,-222,4089,75
1289,-237,4056,75
1290,-279,4056,99
1291,-279,4077,144
1292,-240,4077,144
1293,-240,4119,144
1294,-273,4104,144
1295,-240,4104,105
1296,-240,4107,105
1297,-240,4107,63
1298,-240,4110,135
1299,-144,4140,135
1300,-213,4140,135
1301,-213,4092,135
1302,-240,4092,123
1303,-240,4074,60
1304,-288,4077,60
1305,-288,4077,144
1306,-279,4089,144
1307,-267,4089,108
1308,-267,4089,138
1309,-249,4098,138
1310,-249,4098,48
1311,-321,4068,48
1312,-264,4068,69
1313,-264,4062,48
1314,-279,4062,48
1315,-279,4062,63
1316,-234,4134,63
1317,-177,4134,129
1318,-177,4134,138
1319,-219,4134,138
1320,-219,4044,120
1321,-285,4095,120
1322,-252,4095,180
1323,-252,4146,159
1324,-171,4146,159
1325,-171,4164,129
1326,-219,4149,129
1327,-240,4149,54
1328,-240,4056,78
1329,-237,4056,78
1330,-237,4101,108
1331,-201,4134,108
1332,-210,4134,105
1333,-210,4185,105
1334,-195,4185,144
1335,-195,4101,123
1336,-285,4092,123
1337,-285,4092,90
1338,-273,4107,90
1339,-282,4107,120
1340,-282,4116,93
1341,-303,4074,93
1342,-303,4074,99
1343,-273,4026,99
1344,-309,4026,69
1345,-309,4056,108
1346,-348,4059,108
1347,-348,4059,135
1348,-354,4041,135
1349,-258,4041,144
1350,-258,4086,120
1351,-213,4086,120
1352,-213,4095,60
1353,-237,4095,60
1354,-273,4095,153
1355,-273,4041,99
1356,-282,4041,99
1357,-282,4095,135
1358,-201,4128,135
1359,-189,4128,129
1360,-189,4158,54
1361,-213,4158,54
1362,-213,4137,114
1363,-255,4068,114
1364,-246,4068,69
1365,-246,4053,69
1366,-288,4053,39
1367,-288,4083,33
1368,-267,4086,33
1369,-252,4086,150
1370,-252,4080,150
1371,-249,4080,63
1372,-249,4056,183
1373,-321,4032,183
1374,-321,4032,135
1375,-366,4041,135
1376,-429,4041,330
1377,-429,3939,531
1378,-561,4233,531
1379,-561,4233,756
1380,-510,4236,756
1381,-567,4236,966
1382,-567,4446,1107
1383,-507,4254,1107
1384,-507,4254,1314
1385,-408,4371,1314
1386,-333,4371,1578
1387,-333,4350,1899
1388,-393,4350,1899
1389,-393,4614,2139
1390,-651,5100,2139
1391,-798,5100,2301
1392,-798,5223,2385
1393,-669,5223,2385
1394,-669,5280,2430
1395,-336,5439,2430
1396,-339,5439,2385
1397,-339,5496,2250
1398,-516,5496,2250
1399,-516,5457,1965
1400,-255,5490,1965
1401,219,5490,1878
1402,219,5379,1878
1403,60,5379,1854
1404,60,5028,1755
1405,-213,4986,1755
1406,90,4986,1803
1407,90,5079,1803
1408,666,5079,1971
1409,666,5106,2010
1410,468,4824,2010
1411,468,4824,2091
1412,-495,4758,2091
1413,-888,4758,2040
1414,-888,4632,2034
1415,-339,4758,2034
1416,-339,4758,2196
1417,579,4965,2196
1418,870,4965,2427
1419,870,4872,2382
1420,123,4872,2382
1421,123,4785,2100
1422,-474,4542,2100
1423,-282,4542,2046
1424,-282,4266,2130
1425,357,4266,2130
1426,357,4359,2226
1427,615,4158,2226
1428,477,4158,2205
1429,477,3768,2064
1430,27,3768,2064
1431,27,3510,2055
1432,-303,3105,2055
1433,-684,3105,2109
1434,-684,3045,2109
1435,-333,3045,2154
1436,-333,3108,2121
1437,141,3054,2121
1438,840,3054,2250
1439,840,2940,2250
1440,693,2940,2370
1441,693,2739,2442
1442,0,2316,2442
1443,0,2316,2472
1444,-471,2109,2472
1445,-618,2109,2541
1446,-618,2166,2703
1447,195,2337,2703
1448,195,2337,2832
1449,1062,2238,2832
1450,1086,2238,2841
1451,1086,2001,2781
1452,504,1512,2781
1453,504,1512,2787
1454,-75,1206,2787
1455,-81,1206,2703
1456,-81,1044,2823
1457,432,1044,2823
1458,432,1209,3042
1459,882,1194,3042
1460,849,1194,3114
1461,849,1038,3189
1462,642,1038,3189
1463,642,900,3192
1464,507,795,3192
1465,495,795,3219
1466,495,819,3114
1467,702,819,3114
1468,702,663,3129
1469,933,588,3129
1470,1044,588,3117
1471,1044,459,3117
1472,954,459,3117
1473,954,333,3072
1474,795,159,3072
1475,708,159,2979
1476,708,-90,2979
1477,552,-90,2907
1478,552,-132,2787
1479,513,-177,2787
1480,513,-177,2862
1481,1011,57,2862
1482,1395,57,2811
1483,1395,36,2772
1484,1494,-399,2772
1485,1494,-399,2742
1486,1005,-651,2742
1487,507,-651,2616
1488,507,-537,2517
1489,642,-441,2517
1490,642,-441,2325
1491,1164,-441,2325
1492,1647,-441,2412
1493,1647,-612,2523
1494,1314,-612,2523
1495,1314,-681,2577
1496,603,-711,2577
1497,255,-711,2598
1498,255,-669,2601
1499,453,-669,2601
1500,453,-612,2676
1501,732,-498,2676
1502,879,-498,2907
1503,879,-261,2907
1504,1056,-261,2982
1505,1056,-117,3012
1506,930,-213,3012
1507,681,-213,2907
1508,681,-66,2907
1509,591,-66,2799
1510,591,-237,2922
1511,630,12,2922
1512,759,12,3039
1513,759,231,3039
1514,726,231,3024
1515,726,333,3162
1516,594,390,3162
1517,594,390,3177
1518,372,621,3177
1519,156,621,3243
1520,156,693,3219
1521,198,468,3219
1522,198,468,3273
1523,243,777,3273
1524,501,777,3225
1525,501,1254,3240
1526,666,1062,3240
1527,666,1062,3345
1528,486,987,3345
1529,198,987,3534
1530,198,1290,3459
1531,60,1290,3459
1532,60,1851,3033
1533,630,1827,3033
1534,1023,1827,3078
1535,1023,1533,3204
1536,948,1533,3204
1537,948,1590,3285
1538,444,1953,3285
1539,243,1953,3240
1540,243,2202,3117
1541,381,2202,3117
1542,381,2403,3234
1543,285,2274,3234
1544,-252,2274,3249
1545,-252,2472,3249
1546,-306,2472,2904
1547,-306,2271,2988
1548,72,2523,2988
1549,231,2523,3084
1550,231,3123,3084
1551,69,3123,3198
1552,69,2901,3303
1553,-699,2586,3303
1554,-699,2586,3474
1555,-1401,2781,3474
1556,-1614,2781,3495
1557,-1614,3417,3483
1558,-747,3798,3483
1559,-747,3798,3198
1560,-177,3783,3198
1561,333,3783,2838
1562,333,3183,3012
1563,489,3132,3012
1564,489,3132,2928
1565,126,3288,2928
1566,-495,3288,3024
1567,-495,3771,3018
1568,-1185,3771,3018
1569,-1185,4047,3072
1570,-1377,4005,3072
1571,-1215,4005,3168
1572,-1215,3996,2838
1573,-1062,3996,2838
1574,-1062,4056,2505
1575,-888,4083,2505
1576,-417,4083,2181
1577,-417,3531,2226
1578,-150,3531,2226
1579,-150,3282,2241
1580,-606,3747,2241
1581,-1242,3747,2310
1582,-1242,4122,2310
1583,-927,4122,2280
1584,-927,4647,2361
1585,-228,4395,2361
1586,-180,4395,2400
1587,-180,4254,2400
1588,-870,4254,2175
1589,-870,4200,1824
1590,-1251,4185,1824
1591,-1251,4185,1698
1592,-906,4011,1698
1593,-378,4011,1755
1594,-378,3693,1779
1595,-309,3879,1779
1596,-309,3879,1860
1597,-642,4044,1860
1598,-684,4044,1710
1599,-684,4293,1689
1600,-537,4293,1689
1601,-537,4323,1569
1602,-525,4143,1569
1603,-504,4143,1407
1604,-504,4101,1302
1605,-270,4101,1302
1606,-270,3900,1257
1607,-12,3990,1257
1608,6,3990,1374
1609,6,4302,1287
1610,-303,4302,1287
1611,-303,4245,1191
1612,-561,4167,1191
1613,-504,4167,1077
1614,-504,4038,1077
1615,-168,4038,1026
1616,-168,4158,1083
1617,-96,4116,1083
1618,-15,4116,1038
1619,-15,4236,1038
1620,-12,4236,1086
1621,-12,4269,1077
1622,270,4335,1077
1623,270,4335,1287
1624,384,4389,1287
1625,36,4389,1299
1626,36,4554,1368
1627,-303,4425,1368
1628,-303,4425,1323
1629,-285,4374,1323
1630,-162,4374,1338
1631,-162,4260,1266
1632,-384,4230,1266
1633,-384,4230,1113
1634,-480,4236,1113
1635,-402,4236,930
1636,-402,4203,762
1637,-240,4203,762
1638,-240,4218,594
1639,-75,4101,594
1640,6,4101,720
1641,6,3963,765
1642,-360,3963,765
1643,-360,4143,720
1644,-822,4212,720
1645,-909,4212,675
1646,-909,4065,666
1647,-492,4065,666
1648,-492,3978,741
1649,-168,4197,741
1650,-66,4197,717
1651,-66,4416,717
1652,-186,4416,735
1653,-186,4305,591
1654,-336,4146,591
1655,-249,4146,486
1656,-249,4086,486
1657,-153,4086,351
1658,-153,3975,285
1659,-72,3966,285
1660,-72,3966,309
1661,-57,3990,309
1662,-162,3990,219
1663,-162,3939,255
1664,-273,4062,255
1665,-273,4062,234
1666,-279,4065,234
1667,-93,4065,204
1668,-93,4050,165
1669,-96,3975,165
1670,-96,3975,219
1671,-153,3933,219
1672,-291,3933,195
1673,-291,3972,264
1674,-267,3972,264
1675,-267,4113,396
1676,-177,4056,396
1677,-240,4056,501
1678,-240,4098,516
1679,-366,4098,516
1680,-366,4257,579
1681,-249,4356,579
1682,-171,4356,672
1683,-171,4215,579
1684,-288,4215,579
1685,-288,4116,504
1686,-369,3948,504
1687,-504,3948,525
1688,-504,4014,525
1689,-504,4014,456
1690,-504,4041,441
1691,-426,4014,441
1692,-354,4014,396
1693,-354,4002,396
1694,-315,4002,381
1695,-315,4053,390
1696,-321,4113,390
1697,-321,4113,300
1698,-327,4017,300
1699,-231,4017,294
1700,-231,4026,225
1701,-198,3951,225
1702,-198,3951,270
1703,-204,4050,270
1704,-234,4050,234
1705,-234,4059,366
1706,-219,4152,366
1707,-219,4152,411
1708,-258,4230,411
1709,-216,4230,450
1710,-216,4044,456
1711,-288,4044,456
1712,-288,3993,360
1713,-306,3996,360
1714,-297,3996,426
1715,-297,4017,369
1716,-315,4017,369
1717,-315,4074,441
1718,-366,4026,441
1719,-369,4026,420
1720,-369,4050,420
1721,-366,4050,420
1722,-366,4098,396
1723,-258,4113,396
1724,-117,4113,396
1725,-117,4044,396
1726,-237,4044,456
1727,-237,4104,384
1728,-333,4107,384
1729,-270,4107,381
1730,-270,4095,381
1731,-189,4095,345
1732,-189,4086,321
1733,-114,4032,321
1734,-114,4032,345
1735,-183,4074,345
1736,-255,4074,360
1737,-255,4080,390
1738,-273,4089,390
1739,-273,4089,330
1740,-348,4014,330
1741,-360,4014,303
1742,-360,4035,321
1743,-267,4044,321
1744,-267,4044,303
1745,-237,4119,303
1746,-333,4119,360
1747,-333,4158,336
1748,-366,4032,336
1749,-366,4032,375
1750,-354,4074,375
1751,-273,4074,309
1752,-273,4107,414
1753,-228,4107,414
1754,-228,4137,390
1755,-249,4083,390
1756,-264,4083,420
1757,-264,4041,366
1758,-273,4041,366
1759,-273,4098,390
1760,-219,4110,390
1761,-204,4110,315
1762,-204,4101,315
1763,-318,4101,315
1764,-318,4080,300
1765,-336,4032,300
1766,-249,4032,225
1767,-249,4026,225
1768,-219,4026,249
1769,-219,4035,321
1770,-234,4083,321
1771,-258,4083,321
1772,-258,4059,321
1773,-378,4059,288
1774,-378,4044,411
1775,-321,4002,411
1776,-321,4002,345
1777,-267,4092,345
1778,-291,4092,426
1779,-291,4086,369
1780,-282,4035,369
1781,-282,4035,441
1782,-300,4059,441
1783,-360,4059,354
1784,-360,4083,330
1785,-327,4095,330
1786,-327,4095,330
1787,-279,4083,330
1788,-288,4083,324
1789,-288,4089,354
1790,-309,4089,354
1791,-309,4101,324
1792,-348,4062,324
1793,-336,4062,321
1794,-336,4044,309
1795,-342,4044,309
1796,-342,4098,321
1797,-336,4059,321
1798,-219,4059,321
1799,-219,4023,321
1800,-315,4023,294
1801,-315,3987,303
1802,-417,4047,303
1803,-315,4047,255
1804,-315,4032,255
1805,-417,4032,321
1806,-417,4062,285
1807,-384,4050,285
1808,-285,4050,330
1809,-285,4089,330
1810,-282,4089,309
1811,-282,4149,270
1812,-369,4032,270
1813,-369,4032,336
1814,-348,4059,336
1815,-270,4059,228
1816,-270,4044,375
1817,-297,4101,375
1818,-297,4101,336
1819,-279,4065,336
1820,-288,4065,294
1821,-288,4152,369
1822,-240,4152,369
1823,-240,4098,354
1824,-264,4095,354
1825,-270,4095,390
1826,-270,4092,330
1827,-231,4092,330
1828,-231,4056,270
1829,-303,4074,270
1830,-357,4074,321
1831,-357,4098,315
1832,-348,4098,315
1833,-348,4080,315
1834,-282,4083,315
1835,-288,4083,339
1836,-288,4068,300
1837,-315,4068,300
1838,-315,4059,300
1839,-288,4056,300
1840,-318,4056,324
1841,-318,4047,324
1842,-318,4047,270
1843,-318,4074,309
1844,-303,3987,309
1845,-369,3987,351
1846,-369,4029,351
1847,-306,4029,330
1848,-306,4044,351
1849,-300,4026,351
1850,-300,4026,300
1851,-318,4053,300
1852,-285,4053,294
1853,-285,4059,279
1854,-297,4146,279
1855,-297,4146,309
1856,-303,4041,309
1857,-297,4041,288
1858,-297,4095,285
1859,-279,4125,285
1860,-279,4125,249
1861,-285,4095,249
1862,-348,4095,273
1863,-348,4080,336
1864,-285,4080,336
1865,-285,4035,321
1866,-297,4119,321
1867,-318,4119,300
1868,-318,4095,354
1869,-315,4095,354
1870,-315,4059,279
1871,-336,4056,279
1872,-273,4056,375
1873,-273,4053,375
1874,-351,4053,345
1875,-351,4125,264
1876,-333,4077,264
1877,-249,4077,288
1878,-249,4077,288
1879,-228,4077,324
1880,-228,4083,273
1881,-240,4089,273
1882,-240,4089,300
1883,-309,4062,300
1884,-369,4062,273
1885,-369,4035,285
1886,-321,4047,285
1887,-321,4047,309
1888,-285,4068,309
1889,-279,4068,294
1890,-279,4110,321
1891,-249,4089,321
1892,-249,4089,366
1893,-267,4050,366
1894,-342,4050,396
1895,-342,4047,345
1896,-300,4047,345
1897,-300,4110,426
1898,-162,4131,426
1899,-201,4131,351
1900,-201,4128,354
1901,-375,4128,354
1902,-375,4017,369
1903,-516,4125,369
1904,-390,4125,396
1905,-390,4041,414
1906,-309,4041,414
1907,-309,4035,390
1908,-417,4146,390
1909,-462,4146,435
1910,-462,4098,456
1911,-366,4098,456
1912,-366,4026,426
1913,-309,4035,426
1914,-393,4035,456
1915,-393,4095,456
1916,-498,4095,579
1917,-498,4146,651
1918,-498,4233,651
1919,-498,4233,681
1920,-357,4350,681
1921,-183,4350,771
1922,-183,4185,993
1923,-495,4284,993
1924,-495,4284,1146
1925,-498,4089,1146
1926,-729,4089,1308
1927,-729,4227,1479
1928,-843,4455,1479
1929,-843,4455,1509
1930,-645,4620,1509
1931,-273,4620,1644
1932,-273,4611,1830
1933,72,4794,1830
1934,72,4794,1989
1935,162,5019,1989
1936,-210,5019,2046
1937,-210,5031,1845
1938,-444,5031,1845
1939,-444,4893,1758
1940,-78,4878,1758
1941,147,4878,1908
1942,147,5052,1839
1943,177,5052,1839
1944,177,5007,1869
1945,108,4920,1869
1946,123,4920,1908
1947,123,4920,1908
1948,159,4920,1920
1949,159,4899,1926
1950,180,4746,1926
1951,-66,4746,1809
1952,-66,4620,1809
1953,-195,4620,1905
1954,-195,4641,2004
1955,-255,4629,2004
1956,-255,4629,2109
1957,-744,4608,2109
1958,-942,4608,2094
1959,-942,4584,2265
1960,-681,4545,2265
1961,-681,4545,2286
1962,-297,4485,2286
1963,-297,4485,2346
1964,-297,4335,2241
1965,-504,4335,2241
1966,-504,4284,2145
1967,-678,3897,2145
1968,-132,3897,2205
1969,-132,3834,2415
1970,165,3834,2415
1971,165,3849,2535
1972,39,3885,2535
1973,-378,3885,2703
1974,-378,3735,2643
1975,-522,3735,2643
1976,-522,3384,2748
1977,-258,3435,2748
1978,117,3435,2943
1979,117,3474,2862
1980,390,3474,2862
1981,390,3237,2763
1982,231,2934,2763
1983,138,2934,2766
1984,138,2796,2766
1985,192,2796,2826
1986,192,2790,2847
1987,465,2583,2847
1988,402,2583,2934
1989,402,2322,2934
1990,492,2322,2913
1991,492,2268,2907
1992,570,2085,2907
1993,570,2085,3042
1994,753,1995,3042
1995,651,1995,2997
1996,651,1740,2928
1997,546,1530,2928
1998,546,1530,2928
1999,513,1311,2928
2000,606,1311,2904
2001,606,1200,3012
2002,888,1188,3012
2003,888,1188,3129
2004,1023,1284,3129
2005,1023,1284,3228
2006,1023,1083,3270
2007,942,1083,3270
2008,942,873,3219
2009,885,765,3219
2010,819,765,3147
2011,819,603,3114
2012,708,603,3114
2013,708,366,3033
2014,708,171,3033
2015,915,171,3072
2016,915,126,3072
2017,870,126,3159
2018,870,78,3102
2019,717,-15,3102
2020,648,-15,3003
2021,648,-240,3003
2022,660,-240,2838
2023,660,-375,2712
2024,786,-315,2712
2025,786,-315,2508
2026,1023,-300,2508
2027,1302,-300,2340
2028,1302,-585,2241
2029,1284,-870,2241
2030,1284,-870,2055
2031,1041,-1026,2055
2032,831,-1026,2061
2033,831,-882,1914
2034,1017,-711,1914
2035,1017,-711,1815
2036,1173,-1002,1815
2037,1251,-1002,1860
2038,1251,-1077,1995
2039,1068,-1077,1995
2040,1068,-1032,2055
2041,819,-873,2055
2042,651,-873,2061
2043,651,-1017,2211
2044,699,-1017,2211
2045,699,-843,2361
2046,885,-552,2361
2047,978,-552,2478
2048,978,-222,2586
2049,852,-222,2586
2050,852,-132,2652
2051,852,18,2652
2052,906,18,2697
2053,906,204,2697
2054,873,204,2787
2055,873,204,2817
2056,708,198,2817
2057,465,198,2796
2058,465,321,2796
2059,501,321,2706
2060,501,855,2802
2061,1023,1011,2802
2062,1023,1011,2964
2063,1413,846,2964
2064,555,846,3102
2065,555,984,3132
2066,-474,1497,3132
2067,-474,1497,2733
2068,-405,1305,2733
2069,333,1305,2853
2070,333,1092,3093
2071,525,1647,3093
2072,525,1647,3198
2073,312,2499,3198
2074,216,2499,2808
2075,216,2559,2994
2076,747,2559,2994
2077,747,1893,3435
2078,366,2295,3435
2079,-348,2295,3405
2080,-348,2931,3129
2081,-906,2931,3129
2082,-906,3093,2898
2083,123,2628,2898
2084,966,2628,3078
2085,966,3030,3315
2086,813,3030,3315
2087,813,3294,3192
2088,-447,3228,3192
2089,-1326,3228,3159
2090,-1326,3321,3159
2091,-924,3321,3429
2092,-924,3747,3414
2093,-366,4125,3414
2094,-366,4125,3117
2095,-210,4083,3117
2096,-72,4083,2706
2097,-72,3423,2748
2098,417,3561,2748
2099,417,3561,2988
2100,348,4020,2988
2101,21,4020,3033
2102,21,4158,2967
2103,-576,4710,2967
2104,-576,4710,2772
2105,-813,4344,2772
2106,-789,4344,2967
2107,-789,4167,2937
2108,-573,4179,2937
2109,-573,4179,2787
2110,-279,4341,2787
2111,-144,4341,2547
2112,-144,3864,2541
2113,63,3864,2541
2114,63,4188,2466
2115,99,4602,2466
2116,111,4602,2340
2117,111,4518,2205
2118,-183,4518,2205
2119,-183,4419,2154
2120,-369,4218,2154
2121,-390,4218,2034
2122,-390,4329,1743
2123,-129,4329,1743
2124,-129,4425,1587
2125,6,4419,1587
2126,123,4419,1323
2127,123,4326,1323
2128,489,4326,1077
2129,489,3882,1161
2130,633,4023,1161
2131,243,4023,1053
2132,243,4203,1053
2133,-213,4203,972
2134,-213,4248,882
2135,-282,4146,882
2136,-282,4146,831
2137,39,4062,831
2138,537,4062,756
2139,537,3963,1062
2140,477,4290,1062
2141,477,4290,1158
2142,-42,4413,1158
2143,-228,4413,1284
2144,-228,4431,1443
2145,-168,4431,1443
2146,-168,4347,1437
2147,27,4401,1437
2148,168,4401,1407
2149,168,4347,1572
2150,-6,4347,1572
2151,-6,4425,1569
2152,-324,4527,1569
2153,-441,4527,1488
2154,-441,4398,1278
2155,-351,4398,1278
2156,-351,4431,1116
2157,6,4335,1116
2158,111,4335,1008
2159,111,4317,1008
2160,6,4317,993
2161,6,4101,852
2162,-315,4182,852
2163,-372,4182,762
2164,-372,4101,762
2165,-354,4101,717
2166,-354,4107,717
2167,-240,4035,717
2168,-300,4035,711
2169,-300,3984,711
2170,-273,3984,711
2171,-273,4041,606
2172,-282,4104,606
2173,-282,4104,504
2174,-165,4104,504
2175,54,4104,441
2176,54,4107,381
2177,165,4038,381
2178,165,4038,336
2179,78,3960,336
2180,24,3960,228
2181,24,4080,249
2182,-9,4080,249
2183,-9,4104,180
2184,69,4068,180
2185,96,4068,234
2186,96,4104,249
2187,-63,4104,249
2188,-63,4035,264
2189,-183,4107,264
2190,-144,4107,213
2191,-144,4074,330
2192,-204,4074,330
2193,-204,4164,351
2194,-231,4131,351
2195,-219,4131,351
2196,-219,4179,351
2197,-264,4179,360
2198,-264,4095,303
2199,-201,4065,303
2200,-114,4065,324
2201,-114,4101,324
2202,-51,4101,249
2203,-51,4131,390
2204,138,4203,390
2205,138,4203,324
2206,57,4203,324
2207,-72,4203,273
2208,-72,4104,195
2209,-246,4089,195
2210,-246,4089,243
2211,-273,4065,243
2212,-162,4065,243
2213,-162,4029,303
2214,-147,4110,303
2215,-147,4110,330
2216,-195,4158,330
2217,-279,4158,351
2218,-279,4164,309
2219,-216,4164,309
2220,-216,4143,213
2221,-162,4107,213
2222,-228,4107,183
2223,-228,4077,135
2224,-189,4077,135
2225,-189,4065,243
2226,-141,4113,243
2227,-162,4113,270
2228,-162,4152,279
2229,-237,4152,279
2230,-237,4155,234
2231,-252,4053,234
2232,-333,4053,210
2233,-333,4041,210
2234,-240,4041,150
2235,-240,4038,165
2236,-168,4137,165
2237,-234,4137,198
2238,-234,4152,198
2239,-219,4152,168
2240,-219,4083,75
2241,-258,4053,75
2242,-258,4053,78
2243,-318,3963,78
2244,-327,3963,75
2245,-327,3987,123
2246,-270,4110,123
2247,-270,4110,150
2248,-114,4158,150
2249,-90,4158,159
2250,-90,4113,219
2251,-147,4131,219
2252,-147,4131,210
2253,-291,4041,210
2254,-303,4041,135
2255,-303,4062,159
2256,-144,4062,159
2257,-144,4125,105
2258,-96,4077,105
2259,-126,4077,183
2260,-126,4164,195
2261,-213,4164,195
2262,-213,4098,129
2263,-249,4050,129
2264,-327,4050,159
2265,-327,4053,165
2266,-306,4053,165
2267,-306,4140,93
2268,-249,4095,93
2269,-252,4095,153
2270,-252,4104,78
2271,-264,4104,78
2272,-264,4050,105
2273,-342,4044,105
2274,-309,4044,60
2275,-309,4128,60
2276,-180,4128,90
2277,-180,4062,99
2278,-249,4050,99
2279,-222,4050,90
2280,-222,4125,90
2281,-219,4125,114
2282,-219,4128,213
2283,-195,4086,213
2284,-195,4086,84
2285,-186,4089,84
2286,-165,4089,168
2287,-165,4083,144
2288,-228,4074,144
2289,-228,4074,108
2290,-246,4107,108
2291,-303,4107,99
2292,-303,4080,129
2293,-354,4080,129
2294,-354,4086,105
2295,-303,4134,105
2296,-189,4134,69
2297,-189,4116,63
2298,-216,4116,63
2299,-216,4128,60
2300,-237,4011,60
2301,-297,4011,90
2302,-297,4074,78
2303,-222,4074,78
2304,-222,4143,48
2305,-129,4104,48
2306,-213,4104,75
2307,-213,4104,75
2308,-171,4104,108
2309,-171,4080,129
2310,-195,4092,129
2311,-195,4092,60
2312,-246,4125,60
2313,-189,4125,174
2314,-189,4146,69
2315,-204,4095,69
2316,-204,4095,84
2317,-213,4083,84
2318,-228,4083,120
2319,-228,4128,93
2320,-240,4119,93
2321,-240,4119,18
2322,-252,4047,18
2323,-210,4047,90
2324,-210,4128,90
2325,-213,4128,90
2326,-213,4083,39
2327,-234,4044,39
2328,-291,4044,63
2329,-291,4068,-12
2330,-222,4068,-12
2331,-222,4095,78
2332,-102,4134,78
2333,-144,4134,24
2334,-144,4083,78
2335,-240,4083,78
2336,-240,4083,33
2337,-267,4098,33
2338,-204,4098,114
2339,-204,4110,114
2340,-159,4110,60
2341,-159,4101,114
2342,-216,4128,114
2343,-234,4128,84
2344,-234,4128,84
2345,-240,4128,75
2346,-240,4080,33
2347,-270,4023,33
2348,-270,4023,75
2349,-264,4086,75
2350,-189,4086,84
2351,-189,4089,78
2352,-183,4101,78
2353,-183,4101,78
2354,-162,4110,78
2355,-195,4110,69
2356,-195,4092,30
2357,-204,4092,30
2358,-204,4092,30
2359,-228,4101,30
2360,-177,4101,18
2361,-177,4110,0
2362,-135,4110,0
2363,-135,4080,-48
2364,-186,4068,-48
2365,-252,4068,30
2366,-252,4119,45
2367,-189,4119,45
2368,-189,4116,138
2369,-150,4107,138
2370,-165,4107,48
2371,-165,4137,33
2372,-216,4137,33
2373,-216,4068,54
2374,-273,4131,54
2375,-168,4131,114
2376,-168,4149,114
2377,-129,4149,93
2378,-129,4170,60
2379,-129,4092,60
2380,-222,4092,69
2381,-222,4026,69
2382,-249,4026,90
2383,-249,4125,75
2384,-216,4089,75
2385,-216,4089,48
2386,-198,4059,48
2387,-219,4059,24
2388,-219,4095,-12
2389,-198,4077,-12
2390,-198,4077,39
2391,-222,4107,39
2392,-195,4107,30
2393,-195,4104,39
2394,-204,4080,39
2395,-204,4080,99
2396,-165,4050,99
2397,-216,4050,-12
2398,-216,4104,78
2399,-219,4104,78
2400,-219,4113,45
2401,-144,4080,45
2402,-186,4080,63
2403,-186,4098,24
2404,-183,4098,24
2405,-183,4083,-6
2406,-186,4077,-6
2407,-162,4077,15
2408,-162,4083,30
2409,-183,4083,30
2410,-183,4065,54
2411,-228,4164,54
2412,-186,4164,138
2413,-186,4116,123
2414,-114,4116,123
2415,-114,4155,135
2416,-198,4134,135
2417,-195,4134,15
2418,-195,4101,15
2419,-195,4101,-6
2420,-195,4059,-6
2421,-219,4038,-6
2422,-219,4038,-27
2423,-243,4056,-27
2424,-183,4056,3
2425,-183,4062,-12
2426,-165,4101,-12
2427,-165,4101,24
2428,-219,4074,24
2429,-204,4074,48
2430,-204,4068,0
2431,-231,4047,0
2432,-231,4047,99
2433,-234,4083,99
2434,-321,4083,168
2435,-321,4164,303
2436,-480,4164,303
2437,-480,4152,435
2438,-561,4236,435
2439,-510,4236,564
2440,-510,4281,531
2441,-366,4281,531
2442,-366,4194,516
2443,-273,4323,516
2444,-324,4323,585
2445,-324,4329,570
2446,-402,4329,570
2447,-402,4371,624
2448,-387,4200,624
2449,-201,4200,702
2450,-201,4269,702
2451,-60,4269,885
2452,-60,4392,1206
2453,-168,4728,1206
2454,-321,4728,1323
2455,-321,4824,1323
2456,-240,4824,1533
2457,-240,4950,1533
2458,75,4932,1533
2459,75,4932,1614
2460,444,5061,1614
2461,444,5061,1734
2462,444,5262,1635
2463,81,5118,1635
2464,81,5118,1653
2465,12,4851,1653
2466,243,4851,1794
2467,243,5178,1929
2468,564,5331,1929
2469,564,5331,2019
2470,780,5373,2019
2471,882,5373,2109
2472,882,5145,2145
2473,978,5145,2145
2474,978,5091,2241
2475,408,5058,2241
2476,-45,5058,2136
2477,-45,4854,2124
2478,63,4854,2124
2479,63,4731,2196
2480,279,4863,2196
2481,195,4863,2181
2482,195,4527,2166
2483,12,4527,2166
2484,12,4446,2295
2485,237,4752,2295
2486,609,4752,2442
2487,609,4710,2442
2488,339,4710,2295
2489,339,4389,2154
2490,588,4038,2154
2491,588,4038,1971
2492,846,4032,1971
2493,972,4032,2001
2494,972,3996,2121
2495,1185,3999,2121
2496,1185,3999,2151
2497,1398,3966,2151
2498,1245,3966,2247
2499,1245,3645,2085
2500,672,3405,2085
2501,672,3405,2139
2502,303,3015,2139
2503,336,3015,2070
2504,336,2790,2061
2505,954,2790,2061
2506,954,2745,2229
2507,1245,2622,2229
2508,1458,2622,2175
2509,1458,2214,2229
2510,1302,2214,2229
2511,1302,2064,2277
2512,1434,1863,2277
2513,1626,1863,2370
2514,1626,1743,2562
2515,1521,1743,2562
2516,1521,1734,2652
2517,1386,1587,2652
2518,1620,1587,2712
2519,1620,1431,2712
2520,1746,1431,2856
2521,1746,1509,2868
2522,1629,1176,2868
2523,1458,1176,2763
2524,1458,909,2763
2525,1467,909,2682
2526,1467,789,2616
2527,1527,645,2616
2528,1527,645,2586
2529,1620,492,2586
2530,1572,492,2562
2531,1572,447,2367
2532,1623,351,2367
2533,1623,351,2262
2534,1650,-93,2262
2535,1794,-93,2322
2536,1794,-252,2331
2537,1950,-252,2331
2538,1950,-150,2442
2539,2124,-24,2442
2540,2127,-24,2646
2541,2127,-144,2754
2542,1674,-144,2754
2543,1674,-303,2838
2544,1275,-363,2838
2545,1131,-363,2688
2546,1131,-519,2658
2547,1494,-519,2658
2548,1494,-690,2643
2549,1767,-768,2643
2550,1776,-768,2658
2551,1776,-753,2658
2552,1266,-753,2661
2553,1266,-855,2472
2554,990,-834,2472
2555,990,-834,2460
2556,1251,-957,2460
2557,1458,-957,2592
2558,1458,-894,2613
2559,1323,-894,2613
2560,1323,-894,2517
2561,1020,-744,2517
2562,1029,-744,2361
2563,1029,-765,2247
2564,1398,-1062,2247
2565,1398,-1062,2262
2566,1473,-951,2262
2567,1386,-951,2331
2568,1386,-675,2487
2569,1587,-675,2487
2570,1587,-471,2457
2571,1713,-492,2457
2572,1500,-492,2538
2573,1500,-669,2547
2574,1158,-669,2547
2575,1158,-540,2622
2576,1026,-273,2622
2577,1236,-273,2607
2578,1236,-159,2706
2579,1542,-159,2706
2580,1542,24,2652
2581,1371,-15,2652
2582,1041,-15,2628
2583,1041,63,2628
2584,891,63,2577
2585,891,69,2742
2586,1113,342,2742
2587,1281,342,2868
2588,1281,783,2868
2589,1200,783,2883
2590,1200,1092,3144
2591,1680,852,3144
2592,1680,852,3534
2593,1662,1161,3534
2594,1395,1161,3453
2595,1395,1530,3183
2596,1074,1257,3183
2597,1074,1257,3117
2598,1104,954,3117
2599,1611,954,3228
2600,1611,1287,3414
2601,1794,1971,3414
2602,1794,1971,3270
2603,1344,2175,3270
2604,1542,2175,3123
2605,1542,1746,3393
2606,1317,1746,3393
2607,1317,1974,3375
2608,954,2301,3375
2609,228,2301,3123
2610,228,2109,3114
2611,972,2109,3114
2612,972,2253,3384
2613,1710,2535,3384
2614,1770,2535,3519
2615,1770,3009,3318
2616,948,3009,3318
2617,948,2703,3384
2618,225,2031,3384
2619,-546,2031,3621
2620,-546,2421,3621
2621,-573,2421,3744
2622,-573,2988,3606
2623,-477,3444,3606
2624,-114,3444,3198
2625,-114,3198,3198
2626,381,3198,3189
2627,381,2889,3012
2628,228,3066,3012
2629,228,3066,2796
2630,-108,3111,2796
2631,-564,3111,2907
2632,-564,3480,2802
2633,-99,3363,2802
2634,-99,3363,3117
2635,588,3573,3117
2636,936,3573,3168
2637,936,3795,3099
2638,597,3825,3099
2639,597,3825,3018
2640,-99,4068,3018
2641,-135,4068,2826
2642,-135,4026,2811
2643,-42,4026,2811
2644,-42,3804,2652
2645,303,3684,2652
2646,552,3684,2556
2647,552,3843,2646
2648,216,3843,2646
2649,216,4266,2442
2650,144,4407,2442
2651,237,4407,2355
2652,237,4239,1995
2653,555,4239,1995
2654,555,4071,1725
2655,1011,3645,1725
2656,1005,3645,1833
2657,1005,3981,1833
2658,657,3981,1755
2659,657,4392,1593
2660,753,4392,1593
2661,753,4392,1557
2662,960,3939,1557
2663,1089,3939,1623
2664,1089,3783,2004
2665,228,4140,2004
2666,228,4140,2115
2667,-972,4431,2115
2668,-1356,4431,2169
2669,-1356,4290,2121
2670,-747,4254,2121
2671,-747,4254,1941
2672,186,4203,1941
2673,918,4203,1899
2674,918,4233,1971
2675,789,4233,1971
2676,789,4353,2016
2677,99,4446,2016
2678,-348,4446,1950
2679,-348,4392,1719
2680,-357,4392,1719
2681,-357,4191,1539
2682,-171,4050,1539
2683,285,4050,1404
2684,285,3903,1458
2685,48,3903,1458
2686,48,3825,1488
2687,-438,4134,1488
2688,-576,4134,1443
2689,-576,4149,1443
2690,-216,4149,1257
2691,-216,4155,1113
2692,165,4170,1113
2693,261,4170,882
2694,261,3984,882
2695,183,3984,867
2696,183,3909,816
2697,45,4002,816
2698,45,4002,855
2699,57,4053,855
2700,-81,4053,972
2701,-81,4050,1083
2702,-264,4038,1083
2703,-264,4038,855
2704,-339,4206,855
2705,-189,4206,996
2706,-189,4245,993
2707,-51,4236,993
2708,-51,4236,1002
2709,126,4338,1002
2710,159,4338,1146
2711,159,4392,1143
2712,399,4392,1143
2713,399,3951,1137
2714,507,3939,1137
2715,201,3939,1026
2716,201,3675,807
2717,-282,3675,807
2718,-282,3585,825
2719,-252,3819,825
2720,-27,3819,915
2721,-27,4461,1323
2722,501,4461,1323
2723,501,4266,1332
2724,237,3825,1332
2725,-375,3825,978
2726,-375,3339,978
2727,-504,3339,915
2728,-504,4005,1167
2729,183,4227,1167
2730,183,4227,1266
2731,471,3699,1266
2732,87,3699,1008
2733,87,3657,1008
2734,72,3582,1008
2735,72,3582,1041
2736,60,3927,1041
2737,129,3927,1146
2738,129,4029,1248
2739,546,3750,1248
2740,546,3750,1053
2741,441,3657,1053
2742,261,3657,1008
2743,261,3930,1113
2744,270,3930,1113
2745,270,3999,1212
2746,489,3753,1212
2747,435,3753,1026
2748,435,3795,1002
2749,42,3795,1002
2750,42,3858,1092
2751,210,3810,1092
2752,432,3810,1062
2753,432,3945,1011
2754,255,3945,1011
2755,255,3810,1011
2756,357,3963,1011
2757,147,3963,1041
2758,147,3993,1041
2759,186,3993,1107
2760,186,3882,987
2761,456,4068,987
2762,438,4068,1116
2763,438,4068,1116
2764,198,4068,1116
2765,198,3948,1098
2766,486,3942,1098
2767,486,3942,987
2768,339,3870,987
2769,540,3870,1038
2770,540,3939,1032
2771,369,3960,1032
2772,369,3960,1107
2773,345,4008,1107
2774,351,4008,1041
2775,351,3993,1062
2776,384,4059,1062
2777,384,4059,1266
2778,234,3966,1266
2779,198,3966,1083
2780,198,3690,972
2781,225,3690,972
2782,225,3804,963
2783,465,3912,963
2784,546,3912,1023
2785,546,3915,1002
2786,261,3915,1002
2787,261,4020,1098
2788,297,3855,1098
2789,174,3855,987
2790,174,3930,1011
2791,267,3930,1011
2792,267,3951,942
2793,249,3927,942
2794,306,3927,1062
2795,306,4011,1062
2796,519,4011,1062
2797,519,3987,912
2798,207,3960,912
2799,207,3960,897
2800,267,4035,897
2801,264,4035,1008
2802,264,3909,996
2803,249,3885,996
2804,249,3885,1008
2805,294,3900,1008
2806,372,3900,966
2807,372,4080,996
2808,237,3984,996
2809,237,3984,930
2810,261,3972,930
2811,321,3972,936
2812,321,3879,945
2813,357,3879,945
2814,357,3930,951
2815,414,3993,951
2816,348,3993,930
2817,348,3948,936
2818,117,3948,936
2819,117,3903,1023
2820,288,3981,1023
2821,417,3981,1002
2822,417,3996,996
2823,375,3996,996
2824,375,3906,906
2825,231,3864,906
2826,201,3864,792
2827,201,3918,792
2828,297,3918,885
2829,297,3999,1026
2830,534,4137,1026
2831,474,4137,1068
2832,474,3990,1068
2833,201,3990,930
2834,201,3837,882
2835,225,3915,882
2836,225,3915,936
2837,333,3996,936
2838,366,3996,951
2839,366,4017,993
2840,387,4053,993
2841,387,4053,987
2842,351,3936,987
2843,249,3936,945
2844,249,3909,921
2845,285,3909,921
2846,285,3987,981
2847,450,4086,981
2848,390,4086,978
2849,390,4140,930
2850,213,4140,930
2851,213,3921,915
2852,129,3843,915
2853,264,3843,897
2854,264,3966,921
2855,300,3966,921
2856,300,3894,906
2857,276,3978,906
2858,108,3978,936
2859,108,3855,936
2860,117,3855,921
2861,117,3831,747
2862,306,3933,747
2863,426,3933,867
2864,426,4023,867
2865,399,4023,906
2866,399,4008,837
2867,174,3870,837
2868,174,3870,807
2869,-12,3915,807
2870,312,3915,846
2871,312,4014,867
2872,387,3978,867
2873,387,3978,747
2874,294,3972,747
2875,348,3972,801
2876,348,3978,855
2877,60,3909,855
2878,60,3909,870
2879,315,4002,870
2880,381,4002,963
2881,381,3891,840
2882,285,3891,840
2883,285,3918,810
2884,336,3993,810
2885,339,3993,867
2886,339,4059,957
2887,249,4059,957
2888,249,4002,963
2889,306,3987,963
2890,297,3987,963
2891,297,3942,816
2892,282,3942,816
2893,282,3984,867
2894,375,4035,867
2895,297,4035,855
2896,297,3987,855
2897,174,3987,861
2898,174,4044,885
2899,264,3981,885
2900,264,3981,900
2901,318,3945,900
2902,270,3945,840
2903,270,3978,861
2904,252,4059,861
2905,252,4059,900
2906,243,3990,900
2907,279,3990,951
2908,279,4008,930
2909,252,3882,930
2910,252,3882,867
2911,129,3915,867
2912,255,3915,912
2913,255,3960,915
2914,441,3960,915
2915,441,4005,927
2916,420,3963,927
2917,162,3963,771
2918,162,3945,735
2919,312,3945,735
2920,312,3951,702
2921,537,4065,702
2922,384,4065,687
2923,384,3936,687
2924,246,3936,645
2925,246,3945,660
2926,315,4047,660
2927,306,4047,777
2928,306,3954,777
2929,393,3954,822
2930,393,3897,756
2931,381,3984,756
2932,381,3984,822
2933,300,3960,822
2934,336,3960,885
2935,336,3972,921
2936,228,3960,921
2937,228,3960,1008
2938,315,4008,1008
2939,228,4008,1071
2940,228,3909,957
2941,312,4050,957
2942,312,4050,963
2943,381,3912,963
2944,168,3912,846
2945,168,3987,927
2946,393,3987,927
2947,393,4095,1011
2948,357,3963,1011
2949,387,3963,855
2950,387,3990,921
2951,288,3990,921
2952,288,3939,891
2953,297,3990,891
2954,483,3990,912
2955,483,4032,912
2956,504,4032,912
2957,504,3921,885
2958,522,3987,885
2959,570,3987,912
2960,570,4023,912
2961,384,4023,978
2962,384,3945,1062
2963,234,4056,1062
2964,234,4056,1278
2965,207,3954,1278
2966,207,3954,1302
2967,207,4134,1323
2968,198,4155,1323
2969,198,4155,1383
2970,324,4104,1383
2971,246,4104,1527
2972,246,4029,1725
2973,198,4029,1725
2974,198,3984,1935
2975,165,4218,1935
2976,279,4218,2124
2977,279,4284,2151
2978,381,4284,2151
2979,381,4242,2169
2980,477,4239,2169
2981,540,4239,2199
2982,540,4401,2295
2983,711,4401,2295
2984,711,4488,2487
2985,570,4575,2487
2986,933,4575,2526
2987,933,4395,2526
2988,474,4395,2682
2989,474,4221,2757
2990,12,4023,2757
2991,246,4023,2868
2992,246,4425,2868
2993,933,4425,3147
2994,933,4533,3168
2995,1251,4497,3168
2996,1251,4497,2973
2997,750,4218,2973
2998,612,4218,2913
2999,612,4302,3270
3000,942,4542,3270
3001,942,4542,3399
3002,1104,4512,3399
3003,1608,4512,3288
3004,1608,4359,3027
3005,1353,4359,3027
3006,1353,4113,3078
3007,750,4173,3078
3008,642,4173,3039
3009,642,4224,2994
3010,1224,4224,2994
3011,1224,4062,3129
3012,1464,4311,3129
3013,1500,4311,3285
3014,1500,4053,3027
3015,561,4053,3027
3016,561,3432,2652
3017,42,3294,2652
3018,984,3294,2706
3019,984,3522,2706
3020,1743,3522,2967
3021,1743,3642,3048
3022,1749,3294,3048
3023,1209,3294,2838
3024,1209,2967,2838
3025,909,2967,2793
3026,909,2724,2751
3027,864,2451,2751
3028,864,2451,2826
3029,951,2382,2826
3030,1149,2382,2937
3031,1149,2379,2937
3032,2043,2487,2937
3033,2043,2487,2889
3034,2217,2061,2889
3035,831,2061,2520
3036,831,1191,2427
3037,663,1215,2427
3038,663,1215,2793
3039,1266,1530,2793
3040,1383,1530,3054
3041,1383,1239,2871
3042,1329,1239,2871
3043,1329,1293,2706
3044,1716,822,2706
3045,1473,822,2601
3046,1473,324,2673
3047,1320,324,2673
3048,1320,360,2658
3049,1278,471,2658
3050,1293,471,2526
3051,1293,141,2526
3052,1455,141,2571
3053,1455,129,2652
3054,1620,-120,2652
3055,1449,-120,2418
3056,1449,-486,2418
3057,1248,-486,2211
3058,1248,-534,2340
3059,1137,-492,2340
3060,1137,-492,2331
3061,1197,-624,2331
3062,1797,-624,2382
3063,1797,-486,2508
3064,1914,-726,2508
3065,1914,-726,2331
3066,1242,-1275,2331
3067,771,-1275,2085
3068,771,-1056,2166
3069,1146,-1056,2166
3070,1146,-1104,2106
3071,1329,-1230,2106
3072,1659,-1230,2121
3073,1659,-984,2229
3074,1524,-984,2229
3075,1524,-1224,1989
3076,1137,-1374,1989
3077,1098,-1374,1659
3078,1098,-1455,1905
3079,1383,-1455,1905
3080,1383,-1017,2241
3081,1881,-780,2241
3082,1764,-780,2262
3083,1764,-906,2262
3084,1146,-906,2136
3085,1146,-1272,1989
3086,1143,-1110,1989
3087,1143,-1110,2355
3088,1545,-705,2355
3089,1761,-705,2556
3090,1761,-549,2418
3091,1695,-678,2418
3092,1695,-678,2601
3093,1518,-735,2601
3094,1107,-735,2637
3095,1107,-657,2667
3096,954,-417,2667
3097,954,-417,2643
3098,1527,-246,2643
3099,2157,-246,2721
3100,2157,-231,2862
3101,1149,-231,2862
3102,1149,-492,2706
3103,384,-330,2706
3104,801,-330,2616
3105,801,333,2826
3106,1623,333,2826
3107,1623,264,3138
3108,1458,291,3138
3109,1092,291,3183
3110,1092,474,2832
3111,984,474,2832
3112,984,540,2904
3113,1929,1089,2904
3114,1845,1089,3213
3115,1845,1143,3213
3116,1374,1143,3084
3117,1374,1158,2736
3118,1089,1110,2736
3119,1089,1110,2733
3120,2298,1536,2733
3121,1830,1536,3210
3122,1830,1809,3225
3123,819,2040,3225
3124,819,2040,2532
3125,801,1203,2532
3126,1098,1203,2703
3127,1098,1737,3564
3128,18,2247,3564
3129,18,2247,3960
3130,-300,2697,3960
3131,561,2697,3495
3132,561,2490,3333
3133,1986,2490,3333
3134,1986,2487,3867
3135,960,2793,3867
3136,-771,2793,4131
3137,-771,2670,3870
3138,-1896,2670,3870
3139,-1896,2460,3219
3140,663,3114,3219
3141,2868,3114,4035
3142,2868,3813,4035
3143,1317,3813,4002
3144,1317,3126,3318
3145,-210,2442,3318
3146,-114,2442,3162
3147,-114,3177,3162
3148,1314,3177,3882
3149,1314,4113,4272
3150,1608,3756,4272
3151,1608,3756,3945
3152,1089,3498,3945
3153,432,3498,3198
3154,432,3417,2847
3155,390,3549,2847
3156,390,3549,3204
3157,1149,4101,3204
3158,915,4101,3300
3159,915,3996,3144
3160,564,3996,3144
3161,564,3507,2922
3162,-39,3318,2922
3163,-84,3318,2823
3164,-84,3831,2781
3165,381,3831,2781
3166,381,3939,2322
3167,915,3789,2322
3168,1581,3789,2160
3169,1581,3717,2340
3170,897,3717,2340
3171,897,3882,2688
3172,111,3888,2688
3173,-102,3888,2751
3174,-102,3876,2751
3175,834,3876,2631
3176,834,3876,2592
3177,1416,3921,2592
3178,1368,3921,2526
3179,1368,4062,2526
3180,1212,4062,2706
3181,1212,4113,2697
3182,819,4131,2697
3183,819,4131,2505
3184,663,3807,2505
3185,183,3807,2643
3186,183,3996,2832
3187,-891,3681,2832
3188,-891,3681,2445
3189,-525,3621,2445
3190,474,3621,2214
3191,474,4071,2307
3192,1056,3996,2307
3193,1056,3996,2457
3194,-594,3522,2457
3195,-1266,3522,2286
3196,-1266,3507,2199
3197,-456,3507,2199
3198,-456,3723,1974
3199,348,3915,1974
3200,885,3915,1773
3201,885,4254,2016
3202,591,4254,2016
3203,591,4263,1878
3204,-9,3915,1878
3205,-234,3915,1638
3206,-234,3756,1494
3207,-72,3756,1494
3208,-72,3756,1389
3209,-78,3831,1389
3210,81,3831,1353
3211,81,3813,1353
3212,-57,3813,1329
3213,-57,3756,1353
3214,-144,4182,1353
3215,12,4182,1404
3216,12,3876,1404
3217,-162,3876,1152
3218,-162,3750,921
3219,-147,3642,921
3220,-147,3642,846
3221,-150,3786,846
3222,219,3786,921
3223,219,3888,1008
3224,387,4056,1008
3225,387,4056,1176
3226,42,3864,1176
3227,-231,3864,1062
3228,-231,3651,1092
3229,-489,3669,1092
3230,-489,3669,1389
3231,-498,3822,1389
3232,-99,3822,1449
3233,-99,3915,1434
3234,237,3915,1434
3235,237,3933,1353
3236,231,3840,1353
3237,348,3840,1248
3238,348,3966,1344
3239,270,3966,1344
3240,270,3996,1422
3241,-30,4014,1422
3242,-21,4014,1458
3243,-21,3936,1458
3244,-81,3936,1323
3245,-81,3930,1278
3246,-108,3903,1278
3247,-144,3903,1203
3248,-144,3951,1203
3249,132,3951,1251
3250,132,3945,1218
3251,144,3966,1218
3252,144,3966,1107
3253,-165,3837,1107
3254,-117,3837,1056
3255,-117,3858,1008
3256,261,3915,1008
3257,261,3915,1026
3258,294,3897,1026
3259,213,3897,1107
3260,213,3900,1287
3261,-126,3879,1287
3262,-126,3879,1197
3263,-282,3879,1197
3264,-93,3879,1101
3265,-93,3801,1092
3266,219,3801,1092
3267,219,3987,1113
3268,570,4098,1113
3269,471,4098,1218
3270,471,3993,1113
3271,-204,3993,1113
3272,-204,3882,1188
3273,-114,3840,1188
3274,72,3840,1197
3275,72,3906,1101
3276,63,3906,1101
3277,63,3957,1101
3278,351,3888,1101
3279,207,3888,1077
3280,207,3963,1077
3281,-33,3963,1062
3282,-33,3924,1068
3283,-30,3948,1068
3284,-30,3948,927
3285,-333,3861,927
3286,-114,3861,861
3287,-114,3936,831
3288,198,4017,831
3289,198,4017,897
3290,126,3831,897
3291,-6,3831,822
3292,-6,3954,906
3293,123,3993,906
3294,123,3993,1083
3295,-135,3903,1083
3296,-300,3903,1071
3297,-300,3879,1032
3298,57,3879,1032
3299,57,3891,1041
3300,288,3981,1041
3301,24,3981,936
3302,24,3861,861
3303,-33,3861,861
3304,-33,3915,957
3305,99,4074,957
3306,249,4074,1161
3307,249,4119,1161
3308,213,4119,1161
3309,213,3990,1008
3310,6,3870,1008
3311,237,3870,870
3312,237,4110,870
3313,456,4110,1023
3314,456,4206,936
3315,87,4011,936
3316,-165,4011,825
3317,-165,4002,825
3318,-99,4002,831
3319,-99,4005,807
3320,39,3972,807
3321,39,3972,861
3322,-9,3984,861
3323,168,3984,762
3324,168,3966,831
3325,210,3951,831
3326,210,3951,837
3327,-108,3834,837
3328,-183,3834,897
3329,-183,3972,996
3330,9,3981,996
3331,9,3981,966
3332,117,3855,966
3333,60,3855,810
3334,60,4059,801
3335,210,4059,801
3336,210,3999,795
3337,-6,4002,795
3338,-72,4002,882
3339,-72,4002,792
3340,-12,4002,792
3341,-12,4014,795
3342,36,4032,795
3343,81,4032,762
3344,81,3999,762
3345,-90,3999,780
3346,-90,4044,885
3347,-21,4080,885
3348,-72,4080,966
3349,-72,4083,966
3350,-102,4083,930
3351,-102,3876,837
3352,-63,3912,837
3353,-63,3912,831
3354,192,4044,831
3355,114,4044,906
3356,114,4032,912
3357,-84,4062,912
3358,-84,4062,915
3359,-177,3930,915
3360,-135,3930,837
3361,-135,4068,816
3362,63,3981,816
3363,63,3981,717
3364,-15,3924,717
3365,-84,3924,816
3366,-84,4068,822
3367,-96,4068,822
3368,-96,3981,816
3369,-201,4062,816
3370,-57,4062,945
3371,-57,3942,912
3372,-90,3942,912
3373,-90,3912,921
3374,-6,4035,921
3375,81,4035,936
3376,81,4107,945
3377,-63,4107,945
3378,-63,3987,867
3379,-219,4023,867
3380,-12,4023,876
3381,-12,3885,876
3382,-63,3885,696
3383,-63,3996,696
3384,-132,3906,696
3385,-303,3906,609
3386,-303,4011,609
3387,-153,4011,657
3388,-153,4035,777
3389,-246,3978,777
3390,-246,3978,786
3391,-195,3882,786
3392,-120,3882,762
3393,-120,4005,765
3394,-81,3978,765
3395,-81,3978,717
3396,-183,4029,717
3397,-30,4029,735
3398,-30,4029,747
3399,-60,4029,747
3400,-60,3996,822
3401,-204,4014,822
3402,-57,4014,810
3403,-57,4056,861
3404,6,4056,861
3405,6,4119,915
3406,24,3993,915
3407,-90,3993,705
3408,-90,4053,825
3409,-45,4053,825
3410,-45,4080,831
3411,-24,4050,831
3412,-21,4050,870
3413,-21,4038,870
3414,-99,4038,861
3415,-99,4002,840
3416,-90,3981,840
3417,-15,3981,795
3418,-15,4011,795
3419,-96,4011,831
3420,-96,4029,852
3421,-150,3993,852
3422,-150,3993,786
3423,-153,3963,786
3424,-90,3963,750
3425,-90,3999,735
3426,-141,3996,735
3427,-141,3996,792
3428,-180,3996,792
3429,-162,3996,681
3430,-162,4059,732
3431,-222,3948,732
3432,-222,3948,660
3433,-111,3999,660
3434,-63,3999,681
3435,-63,4008,717
3436,-117,4008,717
3437,-117,4026,672
3438,-177,3996,672
3439,-216,3996,681
3440,-216,3915,705
3441,-72,3915,705
3442,-72,4005,672
3443,-132,4029,672
3444,-165,4029,741
3445,-165,4011,741
3446,-102,4011,696
3447,-102,3963,786
3448,-75,3999,786
3449,-99,3999,726
3450,-99,4008,726
3451,-165,4008,735
3452,-165,4056,747
3453,-171,4017,747
3454,-171,4017,726
3455,-186,4008,726
3456,-111,4008,777
3457,-111,4023,726
3458,-108,3993,726
3459,-108,3993,801
3460,-168,4113,801
3461,-114,4113,795
3462,-114,4068,705
3463,-108,4005,705
3464,-108,4005,702
3465,-72,4077,702
3466,-96,4077,750
3467,-96,4032,750
3468,-129,4032,750
3469,-129,3960,675
3470,-129,4041,675
3471,18,4041,702
3472,18,4047,762
3473,-108,4047,762
3474,-108,4098,780
3475,-84,4059,780
3476,-15,4059,756
3477,-15,4044,756
3478,-39,4044,837
3479,-39,4011,780
3480,-33,4083,780
3481,-30,4083,750
3482,-30,4059,750
3483,-21,4059,726
3484,-21,3942,720
3485,-111,4038,720
3486,-111,4038,756
3487,-66,3975,756
3488,-117,3975,657
3489,-117,3927,642
3490,-189,3978,642
3491,-189,3978,741
3492,-96,3957,741
3493,-135,3957,675
3494,-135,3963,675
3495,-129,3963,675
3496,-129,3963,624
3497,-150,3963,624
3498,-129,3963,687
3499,-129,4041,831
3500,-150,4041,831
3501,-150,4023,981
3502,-336,4062,981
3503,-288,4062,1086
3504,-288,4023,1158
3505,-183,4023,1158
3506,-183,3873,1128
3507,-213,4116,1128
3508,-117,4116,1338
3509,-117,4332,1338
3510,-147,4332,1503
3511,-147,4239,1428
3512,-210,4152,1428
3513,-12,4152,1524
3514,-12,4347,1524
3515,369,4347,1725
3516,369,4620,1890
3517,684,4572,1890
3518,684,4572,2085
3519,393,4512,2085
3520,150,4512,2094
3521,150,4293,2061
3522,54,4326,2061
3523,54,4326,2091
3524,150,4479,2091
3525,354,4479,2175
3526,354,4479,2331
3527,426,4479,2331
3528,426,4605,2307
3529,-315,4254,2307
3530,-435,4254,2292
3531,-435,4422,2430
3532,264,4422,2430
3533,264,4551,2442
3534,726,4629,2442
3535,666,4629,2460
3536,666,4425,2427
3537,105,4425,2427
3538,105,4254,2622
3539,-63,4518,2622
3540,270,4518,2697
3541,270,4443,2697
3542,798,4443,2571
3543,798,4569,2787
3544,1017,4593,2787
3545,1017,4593,2706
3546,495,4131,2706
3547,-78,4131,2406
3548,-78,3972,2367
3549,333,4146,2367
3550,333,4146,2568
3551,537,4188,2568
3552,786,4188,2556
3553,786,4044,2490
3554,1197,4212,2490
3555,1197,4212,2466
3556,1287,3951,2466
3557,1215,3951,2436
3558,1215,3714,2568
3559,951,3714,2568
3560,951,3672,2781
3561,1311,3750,2781
3562,1440,3750,2742
3563,1440,3639,2781
3564,1620,3639,2781
3565,1620,3537,2808
3566,2148,3315,2808
3567,2727,3315,2748
3568,2727,3456,2748
3569,1677,3456,2871
3570,1677,2778,2949
3571,-99,2529,2949
3572,-393,2529,3354
3573,-393,2523,3354
3574,444,2523,3468
3575,444,2466,3228
3576,1338,2361,3228
3577,1338,2361,3069
3578,1785,2283,3069
3579,1398,2283,3084
3580,1398,2094,2997
3581,717,1698,2997
3582,717,1698,2919
3583,558,1539,2919
3584,789,1539,2877
3585,789,1437,2877
3586,1017,1437,2877
3587,1017,1284,2907
3588,1116,1143,2907
3589,1263,1143,2868
3590,1263,990,2601
3591,1716,990,2601
3592,1716,1041,2601
3593,1767,714,2601
3594,1533,714,2646
3595,1533,450,2646
3596,1374,450,2661
3597,1374,330,2691
3598,1485,291,2691
3599,1752,291,2787
3600,1752,258,2787
3601,1935,258,2811
3602,1935,120,2871
3603,2130,-12,2871
3604,2130,-12,2838
3605,1785,-312,2838
3606,1260,-312,2571
3607,1260,-708,2265
3608,1350,-705,2265
3609,1350,-705,2250
3610,1602,-504,2250
3611,1551,-504,2391
3612,1551,-624,2382
3613,1251,-864,2382
3614,1251,-864,2046
3615,1125,-1068,2046
3616,1197,-1068,1884
3617,1197,-1191,1764
3618,1311,-1191,1764
3619,1311,-1299,1989
3620,984,-1188,1989
3621,954,-1188,2070
3622,954,-1185,1986
3623,1248,-1185,1986
3624,1248,-1203,2016
3625,1335,-1272,2016
3626,1122,-1272,2100
3627,1122,-1155,2100
3628,1215,-1155,2070
3629,1215,-1143,2241
3630,1488,-912,2241
3631,1338,-912,2352
3632,1338,-1011,2352
3633,1299,-1011,2370
3634,1299,-933,2460
3635,1407,-813,2460
3636,1407,-813,2622
3637,1596,-567,2622
3638,1389,-567,2883
3639,1389,-666,2898
3640,1281,-834,2898
3641,1281,-834,2796
3642,1287,-618,2796
3643,1311,-618,2688
3644,1311,-270,2523
3645,1470,-270,2523
3646,1470,-351,2757
3647,1125,-225,2757
3648,990,-225,3129
3649,990,-30,3159
3650,954,-30,3159
3651,954,315,3039
3652,984,-15,3039
3653,1068,-15,3078
3654,1068,255,3429
3655,1353,255,3429
3656,1353,516,3435
3657,1062,585,3435
3658,1215,585,3240
3659,1215,681,3240
3660,1431,681,3414
3661,1431,780,3579
3662,858,744,3579
3663,192,744,3153
3664,192,612,3153
3665,1452,612,2898
3666,1452,1302,3546
3667,2232,1749,3546
3668,2232,1749,3759
3669,1581,1500,3759
3670,279,1500,3318
3671,279,1002,2913
3672,882,1464,2913
3673,882,1464,3300
3674,1998,2196,3300
3675,1848,2196,3576
3676,1848,2154,3144
3677,1047,1686,3144
3678,1047,1686,2964
3679,1317,1851,2964
3680,1896,1851,3339
3681,1896,2415,3636
3682,1788,2415,3636
3683,1788,2532,3540
3684,969,2220,3540
3685,432,2220,3360
3686,432,2160,3474
3687,849,2160,3474
3688,849,2628,3654
3689,1173,3015,3654
3690,822,3015,3483
3691,822,2757,3360
3692,762,2757,3360
3693,762,2787,3513
3694,777,2988,3513
3695,840,2988,3540
3696,840,3273,3540
3697,540,3273,3576
3698,540,3219,3384
3699,144,2769,3384
3700,144,2769,3354
3701,552,3249,3354
3702,1122,3249,3489
3703,1122,3498,3591
3704,846,3402,3591
3705,846,3402,3384
3706,93,3351,3384
3707,36,3351,3018
3708,36,3090,2919
3709,552,3090,2919
3710,552,3279,3138
3711,873,3678,3138
3712,777,3678,3132
3713,777,3711,2643
3714,534,3711,2643
3715,534,3225,2571
3716,795,3552,2571
3717,609,3552,2943
3718,609,3660,2943
3719,228,3660,2733
3720,228,3477,2382
3721,99,3609,2382
3722,459,3609,2325
3723,459,3747,2325
3724,696,3747,2535
3725,696,3855,2601
3726,783,3825,2601
3727,783,3825,2271
3728,744,3831,2271
3729,630,3831,2034
3730,630,3816,2184
3731,432,4002,2184
3732,432,4002,2235
3733,246,3897,2235
3734,321,3897,1878
3735,321,3861,1473
3736,426,3783,1473
3737,426,3783,1437
3738,888,3960,1437
3739,735,3960,1734
3740,735,3945,2016
3741,303,3945,2016
3742,303,4038,2001
3743,105,3984,2001
3744,408,3984,1899
3745,408,3942,1704
3746,639,3942,1704
3747,639,4080,1800
3748,357,4188,1800
3749,-33,4188,2085
3750,-33,4185,2085
3751,-219,4185,2151
3752,-219,3957,1908
3753,-240,3933,1908
3754,114,3933,1839
3755,114,4074,1839
3756,564,4074,1848
3757,564,4236,1908
3758,528,4197,1908
3759,528,4197,1815
3760,162,4131,1815
3761,21,4131,1665
3762,21,4002,1464
3763,42,3930,1464
3764,42,3930,1314
3765,183,4071,1314
3766,144,4071,1257
3767,144,4119,1158
3768,201,4035,1158
3769,201,4035,1242
3770,-291,3933,1242
3771,-762,3933,1236
3772,-762,3864,1257
3773,-699,3864,1257
3774,-699,3924,1227
3775,-291,3924,1227
3776,180,3924,1116
3777,180,4017,1137
3778,138,4017,1137
3779,138,4008,1203
3780,39,4137,1203
3781,-15,4137,1221
3782,-15,4008,1206
3783,45,4008,1206
3784,45,4134,1188
3785,213,3999,1188
3786,186,3999,1092
3787,186,4092,1092
3788,192,4092,1053
3789,192,4020,906
3790,60,4041,906
3791,60,4041,1026
3792,-117,3987,1026
3793,-171,3987,1008
3794,-171,3978,972
3795,-51,3921,972
3796,-51,3921,822
3797,-30,3882,822
3798,-108,3882,855
3799,-108,3954,900
3800,177,3954,900
3801,177,4014,945
3802,126,3987,945
3803,-9,3987,822
3804,-9,3861,777
3805,-42,3861,777
3806,-42,3822,762
3807,-132,3894,762
3808,24,3894,846
3809,24,4011,912
3810,165,4011,912
3811,165,4014,870
3812,21,3870,870
3813,63,3870,741
3814,63,3963,741
3815,159,3963,705
3816,159,3972,657
3817,-72,3915,657
3818,-72,3915,732
3819,-84,3903,732
3820,111,3903,696
3821,111,4020,831
3822,216,4011,831
3823,216,4011,837
3824,111,3960,837
3825,21,3960,795
3826,21,3963,816
3827,123,3927,816
3828,123,3927,891
3829,-132,4011,891
3830,6,4011,945
3831,6,4038,912
3832,207,4038,912
3833,207,4062,906
3834,375,4119,906
3835,117,4119,951
3836,117,4023,906
3837,39,4023,906
3838,39,3999,855
3839,42,4053,855
3840,138,4053,906
3841,138,4101,906
3842,144,4101,921
3843,144,4188,855
3844,6,3957,855
3845,-132,3957,741
3846,-132,3981,741
3847,-114,3981,837
3848,-114,4041,882
3849,-30,4026,882
3850,-30,4026,792
3851,45,4065,792
3852,45,4065,702
3853,45,3993,771
3854,-12,3906,771
3855,-12,3906,630
3856,-90,3945,630
3857,24,3945,711
3858,24,4041,816
3859,72,4047,816
3860,72,4047,807
3861,36,3990,807
3862,-24,3990,687
3863,-24,3984,711
3864,72,3984,711
3865,72,3996,687
3866,-66,3966,687
3867,63,3966,696
3868,63,4065,810
3869,123,4065,810
3870,123,4146,822
3871,-15,3975,822
3872,-198,3975,732
3873,-198,3963,732
3874,21,3963,765
3875,21,4032,777
3876,105,4065,777
3877,93,4065,762
3878,93,4050,762
3879,93,4050,762
3880,93,4107,795
3881,60,4014,795
3882,60,4014,762
3883,-213,3951,762
3884,-78,3951,735
3885,-78,3957,756
3886,126,4104,756
3887,126,4104,810
3888,141,4059,810
3889,36,4059,792
3890,36,3987,717
3891,-48,3987,717
3892,-48,3963,720
3893,63,4050,720
3894,75,4050,735
3895,75,4098,720
3896,9,4098,720
3897,9,4035,717
3898,21,3972,717
3899,9,3972,747
3900,9,3972,741
3901,-63,3972,741
3902,-63,3981,735
3903,21,4059,735
3904,18,4059,801
3905,18,4035,801
3906,3,4035,732
3907,3,3993,732
3908,-9,3972,732
3909,63,3972,702
3910,63,4023,702
3911,72,4023,735
3912,72,4023,720
3913,6,4011,720
3914,6,4011,687
3915,48,4002,687
3916,0,4002,735
3917,0,4044,756
3918,57,4023,756
3919,57,4023,675
3920,78,4020,675
3921,60,4020,645
3922,60,4050,741
3923,48,4050,741
3924,48,4029,696
3925,-39,4008,696
3926,-45,4008,750
3927,-45,4035,702
3928,6,4035,702
3929,6,4008,717
3930,75,4035,717
3931,63,4035,837
3932,63,4023,831
3933,54,4023,831
3934,54,3996,816
3935,57,4023,816
3936,144,4023,795
3937,144,4071,795
3938,39,4071,681
3939,39,3990,672
3940,129,4041,672
3941,129,4041,645
3942,-21,4062,645
3943,-45,4062,681
3944,-45,3984,705
3945,-60,4032,705
3946,-60,4032,594
3947,-45,3978,594
3948,27,3978,585
3949,27,4020,636
3950,-15,3984,636
3951,-15,3984,666
3952,-120,4014,666
3953,-27,4014,711
3954,-27,3981,690
3955,36,3981,690
3956,36,3951,621
3957,48,4032,621
3958,36,4032,696
3959,36,3999,666
3960,-15,3999,666
3961,-15,4023,762
3962,-33,4047,762
3963,9,4047,672
3964,9,3999,711
3965,36,3999,711
3966,36,4032,717
3967,123,4101,717
3968,105,4101,747
3969,105,4020,747
3970,-27,4020,696
3971,-27,4032,750
3972,9,4032,750
3973,30,4032,717
3974,30,4047,717
3975,69,4047,717
3976,69,4044,735
3977,132,4050,735
3978,132,4050,771
3979,81,4041,771
3980,12,4041,711
3981,12,4011,720
3982,27,4233,720
3983,27,4233,780
3984,36,4074,780
3985,-84,4074,711
3986,-84,4005,717
3987,-24,4005,717
3988,-24,3987,630
3989,-21,4050,630
3990,-96,4050,615
3991,-96,4014,609
3992,-129,4014,609
3993,-129,4059,642
3994,-90,3975,642
3995,-48,3975,621
3996,-48,4011,687
3997,-48,4011,687
3998,-48,3936,549
3999,-75,4038,549
4000,24,4038,624
4001,24,4008,624
4002,-57,4008,624
4003,-57,4074,741
4004,18,3978,741
4005,18,3978,630
4006,-57,3972,630
4007,24,3972,585
4008,24,4005,606
4009,78,4020,606
4010,78,4020,675
4011,-45,4101,675
4012,6,4101,675
4013,6,4074,735
4014,-30,4050,735
4015,-30,4050,711
4016,-42,4017,711
4017,-42,4017,741
4018,-42,3999,735
4019,-48,3999,735
4020,-48,4035,765
4021,-6,4059,765
4022,-15,4059,672
4023,-15,4017,672
4024,-114,4017,672
4025,-114,4005,681
4026,-84,3993,681
4027,-27,3993,651
4028,-27,3975,561
4029,-51,3975,561
4030,-51,3999,672
4031,-60,4023,672
4032,-84,4023,711
4033,-84,4044,711
4034,-57,4044,687
4035,-57,4026,675
4036,-30,3954,675
4037,6,3954,600
4038,6,4008,600
4039,-6,4008,657
4040,-6,4059,672
4041,-21,4056,672
4042,-21,4056,696
4043,-12,4002,696
4044,-75,4002,657
4045,-75,4023,705
4046,54,4089,705
4047,54,4089,690
4048,30,4011,690
4049,-93,4011,687
4050,-93,3948,630
4051,-120,3978,630
4052,-120,3978,660
4053,-144,4083,660
4054,-111,4083,747
4055,-111,4029,645
4056,-120,4029,645
4057,-120,3981,570
4058,-57,4014,570
4059,-39,4014,621
4060,-39,4050,630
4061,-108,4050,630
4062,-108,4002,609
4063,-42,4029,609
4064,-6,4029,642
4065,-6,4029,642
4066,-81,4029,735
4067,-81,4035,690
4068,-99,4038,690
4069,12,4038,726
4070,12,4080,726
4071,0,4080,696
4072,0,4080,732
4073,-84,4077,732
4074,-84,4077,795
4075,-267,4095,795
4076,-162,4095,861
4077,-162,4074,891
4078,-93,4005,891
4079,-93,4005,1083
4080,-201,4251,1083
4081,-144,4251,1323
4082,-144,4359,1482
4083,-453,4359,1482
4084,-453,4203,1428
4085,-675,4023,1428
4086,-309,4023,1539
4087,-309,4083,1920
4088,-33,4083,1920
4089,-33,4518,2229
4090,-120,4719,2229
4091,6,4719,2229
4092,6,4446,2229
4093,-315,4446,2211
4094,-315,4395,2124
4095,-63,4497,2124
4096,357,4497,2355
4097,357,4716,2355
4098,333,4716,2466
4099,333,4935,2460
4100,288,4749,2460
4101,288,4749,2367
4102,180,4758,2367
4103,18,4758,2526
4104,18,4869,2502
4105,324,4902,2502
4106,324,4902,2295
4107,780,4863,2295
4108,930,4863,2241
4109,930,4875,2520
4110,708,4884,2520
4111,708,4884,2631
4112,-51,4455,2631
4113,-228,4455,2442
4114,-228,4215,2550
4115,-51,4215,2550
4116,-51,4128,2766
4117,-390,4248,2766
4118,-591,4248,2907
4119,-591,4074,3054
4120,-315,4074,3054
4121,-315,4164,3102
4122,-12,4095,3102
4123,246,4095,3153
4124,246,3966,3153
4125,528,3966,3144
4126,528,3876,3324
4127,438,3891,3324
4128,-360,3891,3480
4129,-360,3633,3480
4130,-498,3633,3177
4131,-498,3198,2778
4132,21,3294,2778
4133,21,3294,2871
4134,795,3495,2871
4135,1116,3495,3234
4136,1116,3486,3303
4137,663,2994,3303
4138,663,2994,3033
4139,237,2430,3033
4140,408,2430,2919
4141,408,2364,3042
4142,537,2502,3042
4143,537,2502,3087
4144,846,2400,3087
4145,1020,2400,3144
4146,1020,2286,3003
4147,879,1800,3003
4148,879,1800,2766
4149,702,1488,2766
4150,873,1488,2658
4151,873,1437,2766
4152,891,1437,2766
4153,891,1293,2877
4154,681,1236,2877
4155,768,1236,2871
4156,768,1062,2838
4157,1149,1062,2838
4158,1149,894,2682
4159,1500,543,2682
4160,1263,543,2637
4161,1263,489,2757
4162,1017,489,2757
4163,1017,426,2778
4164,954,231,2778
4165,1191,231,2871
4166,1191,129,2871
4167,1278,129,2997
4168,1278,123,3168
4169,1434,123,3168
4170,1434,123,3210
4171,1071,-231,3210
4172,741,-231,2967
4173,741,-504,2844
4174,867,-483,2844
4175,867,-483,2958
4176,972,-441,2958
4177,1302,-441,2874
4178,1302,-348,2817
4179,1398,-594,2817
4180,1398,-594,2457
4181,1053,-918,2457
4182,909,-918,2262
4183,909,-1077,2214
4184,1068,-1077,2214
4185,1068,-1002,2265
4186,1518,-738,2265
4187,1644,-738,2370
4188,1644,-906,2160
4189,1191,-906,2160
4190,1191,-1149,1908
4191,942,-1326,1908
4192,1038,-1326,1704
4193,1038,-1257,1860
4194,1218,-1257,1860
4195,1218,-1092,2016
4196,1098,-987,2016
4197,1431,-987,2064
4198,1431,-969,2064
4199,1296,-969,2109
4200,1296,-1014,2310
4201,903,-1062,2310
4202,903,-1062,2472
4203,990,-807,2472
4204,1311,-807,2778
4205,1311,-372,2922
4206,1698,-456,2922
4207,1698,-456,2898
4208,1200,-606,2898
4209,972,-606,2889
4210,972,-426,2829
4211,957,-240,2829
4212,957,-240,2661
4213,1302,12,2661
4214,1350,12,2697
4215,1350,3,2937
4216,1425,3,2937
4217,1425,27,3138
4218,909,264,3138
4219,759,264,2973
4220,759,195,2898
4221,900,195,2898
4222,900,528,3018
4223,1347,606,3018
4224,1455,606,3270
4225,1455,900,3234
4226,1059,900,3234
4227,1059,981,2736
4228,1008,690,2736
4229,1251,690,2973
4230,1251,1176,2973
4231,999,1176,3408
4232,999,1482,3564
4233,699,1674,3564
4234,699,1674,3255
4235,507,1572,3255
4236,3,1572,3258
4237,3,1503,3669
4238,-267,1752,3669
4239,-267,1752,3900
4240,-567,1974,3900
4241,141,1974,3549
4242,141,1791,3765
4243,921,2478,3765
4244,921,2478,4011
4245,192,2271,4011
4246,-591,2271,4032
4247,-591,2427,3564
4248,-798,2427,3564
4249,-798,2004,3465
4250,1011,2958,3465
4251,1005,2958,3795
4252,1005,2892,3765
4253,-102,2892,3765
4254,-102,2850,3579
4255,-1167,3054,3579
4256,-237,3054,3039
4257,-237,2325,3039
4258,540,2325,3294
4259,540,3153,3699
4260,999,3540,3699
4261,81,3540,3636
4262,81,3522,3636
4263,-336,3522,3069
4264,-336,2601,3243
4265,147,3357,3243
4266,147,3357,3690
4267,234,3603,3690
4268,-186,3603,3861
4269,-186,3552,3468
4270,-831,3477,3468
4271,-831,3477,3132
4272,-72,3279,3132
4273,561,3279,3564
4274,561,3831,3936
4275,576,3831,3936
4276,576,3927,3720
4277,0,3696,3720
4278,-327,3696,3360
4279,-327,3615,2958
4280,-267,3615,2958
4281,-267,3450,2928
4282,-183,3651,2928
4283,-210,3651,2919
4284,-210,3681,2817
4285,-222,3681,2817
4286,-222,3735,2601
4287,39,3786,2601
4288,63,3786,2280
4289,63,3690,2280
4290,183,3690,1980
4291,183,3642,1869
4292,39,3729,1869
4293,39,3729,1929
4294,-12,3570,1929
4295,45,3570,1980
4296,45,3795,2136
4297,21,3948,2136
4298,21,3948,2085
4299,-195,3726,2085
4300,-141,3726,1986
4301,-141,3723,2019
4302,-30,3771,2019
4303,-30,3771,2055
4304,75,3717,2055
4305,-117,3717,2031
4306,-117,3831,2229
4307,0,3831,2229
4308,0,4035,2277
4309,159,4020,2277
4310,21,4020,2229
4311,21,3984,2199
4312,0,3984,2199
4313,0,3825,2346
4314,-270,4131,2346
4315,-351,4131,2430
4316,-351,4005,2430
4317,-114,4005,2136
4318,-114,3933,1884
4319,-60,3975,1884
4320,81,3975,1605
4321,81,3936,1605
4322,243,3936,1533
4323,243,4041,1740
4324,-27,4113,1740
4325,-27,4113,1935
4326,-765,3894,1935
4327,-822,3894,1674
4328,-822,3648,1443
4329,-411,3708,1443
4330,-411,3708,1434
4331,9,3996,1434
4332,78,3996,1620
4333,78,4104,1542
4334,-24,4104,1542
4335,-24,4029,1554
4336,-204,3963,1554
4337,-297,3963,1383
4338,-297,3807,1182
4339,-342,3807,1182
4340,-342,3780,1158
4341,-108,3942,1158
4342,48,3942,1212
4343,48,4020,1212
4344,159,4020,1212
4345,159,4020,1182
4346,21,3939,1182
4347,-144,3939,1017
4348,-144,3882,1017
4349,-117,3882,930
4350,-117,3909,978
4351,-258,3879,978
4352,-258,3879,957
4353,-165,3882,957
4354,-324,3882,1032
4355,-324,3891,1032
4356,-351,3873,1032
4357,-351,3873,1002
4358,-66,3864,1002
4359,108,3864,1062
4360,108,3843,1056
4361,54,3894,1056
4362,54,3894,981
4363,-72,3900,981
4364,-78,3900,1101
4365,-78,4098,1086
4366,3,4098,1086
4367,3,4080,1092
4368,-60,3936,1092
4369,-21,3936,1008
4370,-21,3891,936
4371,18,3891,936
4372,18,3900,966
4373,27,3957,966
4374,-117,3957,1071
4375,-117,3966,1071
4376,-342,3966,1053
4377,-342,3819,966
4378,-351,3747,966
4379,-57,3747,981
4380,-57,3999,981
4381,69,3999,1083
4382,69,3981,1038
4383,-63,4035,1038
4384,-63,4035,1098
4385,-222,4023,1098
4386,-333,4023,1188
4387,-333,3957,1062
4388,-246,3843,1062
4389,-246,3843,882
4390,-162,3900,882
4391,-303,3900,1038
4392,-303,3927,1071
4393,-396,3927,1071
4394,-396,3891,1092
4395,-366,3894,1092
4396,-348,3894,1017
4397,-348,3933,978
4398,-216,3933,978
4399,-216,3966,921
4400,-141,3891,921
4401,-111,3891,795
4402,-111,3924,822
4403,-39,3924,822
4404,-39,4026,822
4405,-126,4092,822
4406,-258,4092,795
4407,-258,4005,795
4408,-303,4005,837
4409,-303,3852,816
4410,-306,3894,816
4411,-204,3894,897
4412,-204,4035,897
4413,-30,4035,882
4414,-30,4083,951
4415,-93,4113,951
4416,-93,4113,1083
4417,-195,3939,1083
4418,-249,3939,963
4419,-249,3984,1023
4420,-129,4110,1023
4421,-129,4110,1026
4422,-24,4065,1026
4423,-231,4065,1071
4424,-231,3984,1017
4425,-333,3996,1017
4426,-333,3996,1002
4427,-210,4008,1002
4428,-279,4008,1017
4429,-279,3975,1011
4430,-465,3975,1011
4431,-465,3882,966
4432,-465,3879,966
4433,-339,3879,927
4434,-339,3873,891
4435,-240,3873,891
4436,-240,4026,882
4437,-288,4086,882
4438,-333,4086,816
4439,-333,3996,816
4440,-285,3996,765
4441,-285,3942,735
4442,-189,3927,735
4443,-171,3927,711
4444,-171,3873,711
4445,-297,3873,735
4446,-297,3870,825
4447,-402,3939,825
4448,-402,3939,810
4449,-267,4068,810
4450,-120,4068,882
4451,-120,3972,882
4452,-159,3942,882
4453,-159,3942,771
4454,-315,3942,771
4455,-405,3942,855
4456,-405,3984,942
4457,-306,4068,942
4458,-306,4068,996
4459,-354,4032,996
4460,-384,4032,972
4461,-384,3996,927
4462,-540,3996,927
4463,-540,3975,1041
4464,-609,3957,1041
4465,-453,3957,993
4466,-453,4029,966
4467,-339,4029,966
4468,-339,4065,957
4469,-465,4083,957
4470,-492,4083,957
4471,-492,3951,957
4472,-480,3951,876
4473,-480,3984,891
4474,-339,3924,891
4475,-396,3924,906
4476,-396,3924,906
4477,-540,3924,936
4478,-540,3930,861
4479,-528,3861,861
4480,-453,3861,921
4481,-453,3858,921
4482,-405,3858,855
4483,-405,3897,852
4484,-324,3936,852
4485,-324,3936,822
4486,-378,3954,822
4487,-408,3954,816
4488,-408,3936,840
4489,-393,3888,840
4490,-393,3888,840
4491,-339,3957,840
4492,-348,3957,855
4493,-348,4065,882
4494,-321,4065,882
4495,-321,4047,867
4496,-453,4014,867
4497,-396,4014,945
4498,-396,4011,981
4499,-396,4011,981
4500,-396,4035,993
4501,-351,3987,993
4502,-405,3987,870
4503,-405,4026,831
4504,-333,4026,831
4505,-333,4038,810
4506,-339,4053,810
4507,-372,4053,837
4508,-372,3903,837
4509,-456,3903,777
4510,-456,3999,861
4511,-387,3861,861
4512,-513,3861,726
4513,-513,3864,726
4514,-411,3864,765
4515,-411,3900,801
4516,-465,3966,801
4517,-465,3966,807
4518,-462,3906,807
4519,-516,3906,771
4520,-516,3981,810
4521,-441,4059,810
4522,-441,4059,846
4523,-393,4026,846
4524,-423,4026,816
4525,-423,4002,867
4526,-489,3975,867
4527,-489,3975,840
4528,-378,4017,840
4529,-306,4017,852
4530,-306,4023,1032
4531,-387,4023,1032
4532,-387,4047,966
4533,-495,3921,966
4534,-405,3921,876
4535,-405,4029,927
4536,-324,4029,927
4537,-324,3939,885
4538,-435,4035,885
4539,-339,4035,846
4540,-339,4059,846
4541,-384,4059,840
4542,-384,4032,801
4543,-318,3924,801
4544,-318,3924,810
4545,-279,4035,810
4546,-267,4035,786
4547,-267,3996,762
4548,-411,4011,762
4549,-411,4011,756
4550,-507,3951,756
4551,-411,3951,921
4552,-411,4014,876
4553,-402,3927,876
4554,-402,3927,852
4555,-489,3972,852
4556,-609,3972,840
4557,-609,3930,807
4558,-477,3930,807
4559,-477,3936,786
4560,-336,4014,786
4561,-348,4014,831
4562,-348,4026,846
4563,-495,4026,846
4564,-495,3891,822
4565,-417,3915,822
4566,-339,3915,792
4567,-339,3972,837
4568,-324,3972,837
4569,-324,4041,777
4570,-366,3993,777
4571,-435,3993,825
4572,-435,4002,825
4573,-420,4002,846
4574,-420,3903,861
4575,-408,3945,861
4576,-405,3945,852
4577,-405,4017,852
4578,-426,4017,795
4579,-426,4002,792
4580,-513,3978,792
4581,-513,3978,852
4582,-456,3984,852
4583,-336,3984,840
4584,-336,3966,867
4585,-375,4011,867
4586,-375,4011,855
4587,-438,3993,855
4588,-348,3993,837
4589,-348,4023,855
4590,-297,3957,855
4591,-297,3957,762
4592,-354,3951,762
4593,-405,3951,735
4594,-405,3909,777
4595,-324,3909,777
4596,-324,4002,825
4597,-339,3951,825
4598,-393,3951,765
4599,-393,3975,792
4600,-354,3975,792
4601,-354,3975,825
4602,-285,3939,825
4603,-348,3939,735
4604,-348,3963,735
4605,-375,3963,816
4606,-375,3987,837
4607,-435,4041,837
4608,-489,4041,876
4609,-489,3990,876
4610,-453,3990,825
4611,-453,3933,765
4612,-510,3930,765
4613,-510,3930,921
4614,-447,4002,921
4615,-498,4002,861
4616,-498,3957,810
4617,-507,3978,810
4618,-507,3978,897
4619,-489,3993,897
4620,-516,3993,978
4621,-516,4026,1008
4622,-507,4026,1008
4623,-507,4164,1047
4624,-384,4125,1047
4625,-801,4125,1137
4626,-801,3774,1353
4627,-894,3774,1353
4628,-894,3915,1644
4629,-786,4209,1644
4630,-405,4209,2055
4631,-405,4317,2055
4632,-159,4317,2139
4633,-159,4482,2292
4634,-303,4311,2292
4635,-438,4311,2346
4636,-438,4269,2346
4637,-585,4269,2460
4638,-585,4497,2688
4639,-525,4776,2688
4640,-525,4776,2892
4641,-285,4818,2892
4642,-285,4818,3069
4643,-285,4752,2967
4644,-318,4707,2967
4645,-318,4707,2919
4646,-273,4653,2919
4647,-438,4653,2982
4648,-438,4818,3063
4649,-429,4818,3063
4650,-429,4854,2949
4651,-120,4725,2949
4652,315,4725,2787
4653,315,4569,2712
4654,195,4569,2712
4655,195,4443,2868
4656,105,4815,2868
4657,165,4815,3129
4658,165,4686,2964
4659,75,4686,2964
4660,75,4452,2658
4661,-15,4431,2658
4662,303,4431,2796
4663,303,4560,3084
4664,402,4560,3084
4665,402,4782,3108
4666,609,4683,3108
4667,537,4683,2949
4668,537,4188,2949
4669,24,4188,2706
4670,24,3834,2781
4671,177,4188,2781
4672,336,4188,2949
4673,336,4146,2949
4674,1044,4146,2796
4675,1044,3837,2811
4676,1677,3723,2811
4677,1677,3723,2958
4678,1107,3252,2958
4679,192,3252,2883
4680,192,3117,2847
4681,507,2847,2847
4682,507,2847,2862
4683,492,2448,2862
4684,441,2448,2856
4685,441,2367,2778
4686,1107,2274,2778
4687,1107,2274,2691
4688,1509,2049,2691
4689,1425,2049,2613
4690,1425,1914,2598
4691,1401,1914,2598
4692,1401,1590,2511
4693,675,1263,2511
4694,753,1263,2391
4695,753,975,2505
4696,933,975,2505
4697,933,891,2475
4698,1263,798,2475
4699,1368,798,2481
4700,1368,780,2280
4701,1680,780,2280
4702,1680,414,2226
4703,1419,147,2226
4704,786,147,2265
4705,786,-183,2265
4706,726,-183,2385
4707,726,-183,2370
4708,966,-246,2370
4709,966,-246,2325
4710,1254,-456,2325
4711,1281,-456,2478
4712,1281,-363,2451
4713,1335,-498,2451
4714,1335,-498,2421
4715,1317,-651,2421
4716,1167,-651,2391
4717,1167,-753,2190
4718,1320,-879,2190
4719,1320,-879,2139
4720,1575,-630,2139
4721,1881,-630,2040
4722,1881,-822,1971
4723,1263,-822,1971
4724,1263,-1119,2046
4725,492,-1140,2046
4726,834,-1140,1980
4727,834,-936,1884
4728,1626,-936,1884
4729,1626,-954,1869
4730,1518,-843,1869
4731,1626,-843,1920
4732,1626,-810,1920
4733,1332,-810,1875
4734,1332,-939,1803
4735,1167,-735,1803
4736,1569,-735,1848
4737,1569,-645,1848
4738,1659,-645,1971
4739,1659,-552,2034
4740,1578,-441,2034
4741,1578,-441,1920
4742,1467,-447,1920
4743,1647,-447,1926
4744,1647,-87,2301
4745,1416,-33,2301
4746,1416,-33,2508
4747,954,-21,2508
4748,1047,-21,2532
4749,1047,228,2652
4750,1122,537,2652
4751,1122,537,2673
4752,1047,627,2673
4753,798,627,2733
4754,798,441,2862
4755,234,441,2862
4756,234,627,3033
4757,156,957,3033
4758,1401,957,3225
4759,1401,1797,3225
4760,1443,1797,3225
4761,1443,1614,3144
4762,24,1314,3144
4763,-1131,1314,2766
4764,-1131,885,2766
4765,438,885,2742
4766,438,2553,3162
4767,2400,2655,3162
4768,2193,2655,3870
4769,2193,2964,3870
4770,63,2964,3900
4771,63,2076,3255
4772,-1878,1500,3255
4773,-1878,1500,2712
4774,-30,2544,2712
4775,2124,2544,2883
4776,2124,3492,3072
4777,2619,3597,3072
4778,2619,3597,3153
4779,1056,3087,3153
4780,-369,3087,3339
4781,-369,2691,3243
4782,-198,3228,3243
4783,-198,3228,3042
4784,615,4173,3042
4785,1839,4173,3003
4786,1839,3852,3699
4787,1578,3852,3699
4788,1578,4029,4248
4789,-354,3690,4248
4790,-1461,3690,3960
4791,-1461,3519,3177
4792,-750,3519,3177
4793,-750,4014,2958
4794,1389,4017,2958
4795,2379,4017,3420
4796,2379,4650,3420
4797,1242,4650,3951
4798,1242,4203,3789
4799,-459,3795,3789
4800,-1590,3795,3408
4801,-1590,3600,3408
4802,-1029,3600,2796
4803,-1029,3708,2502
4804,645,4254,2502
4805,645,4254,2445
4806,1527,4530,2445
4807,1332,4530,2376
4808,1332,4167,2421
4809,300,4110,2421
4810,300,4110,2490
4811,-81,4068,2490
4812,237,4068,2391
4813,237,4092,2151
4814,642,4092,2151
4815,642,3993,2154
4816,672,4446,2154
4817,357,4446,2310
4818,357,4395,2010
4819,213,4395,2010
4820,213,3945,1650
4821,237,3942,1650
4822,768,3942,1740
4823,768,4293,2220
4824,-210,4293,2220
4825,-210,4290,2064
4826,-666,3909,2064
4827,-258,3909,1695
4828,-258,3804,1695
4829,528,3804,1557
4830,528,4170,1839
4831,885,4467,1839
4832,123,4467,1941
4833,123,4341,1941
4834,-27,4341,1665
4835,-27,3987,1452
4836,114,4062,1452
4837,114,4062,1467
4838,489,4287,1467
4839,696,4287,1467
4840,696,4209,1740
4841,-96,4362,1740
4842,-96,4362,1884
4843,-633,4005,1884
4844,-447,4005,1689
4845,-447,3930,1569
4846,-6,4134,1569
4847,-6,4134,1533
4848,0,4140,1533
4849,138,4140,1293
4850,138,4050,1032
4851,126,4050,1032
4852,126,3948,1053
4853,-96,4083,1053
4854,-264,4083,1062
4855,-264,3981,876
4856,-270,3981,876
4857,-270,3954,741
4858,-258,3864,741
4859,-204,3864,561
4860,-204,3819,561
4861,-57,3819,495
4862,-57,3915,687
4863,-150,3996,687
4864,-687,3996,867
4865,-687,3840,867
4866,-699,3840,771
4867,-699,3654,756
4868,-372,3876,756
4869,-372,3876,795
4870,27,3963,795
4871,-9,3963,810
4872,-9,3966,831
4873,-15,4026,831
4874,-15,4026,852
4875,-90,3948,852
4876,-42,3948,867
4877,-42,4056,963
4878,-51,4029,963
4879,-51,4029,912
4880,-246,3963,912
4881,-300,3963,846
4882,-300,3963,750
4883,-48,3963,750
4884,-48,4047,867
4885,48,4191,867
4886,-291,4191,1113
4887,-291,4170,1068
4888,-360,4170,1068
4889,-360,3936,957
4890,-369,3891,957
4891,-252,3891,906
4892,-252,3987,855
4893,-9,3987,855
4894,-9,4077,840
4895,144,4152,840
4896,-24,4152,861
4897,-24,4074,861
4898,-210,4074,840
4899,-210,4092,936
4900,-204,4035,936
4901,-324,4035,906
4902,-324,3972,906
4903,-255,3972,780
4904,-255,4002,624
4905,-120,4017,624
4906,-120,4017,705
4907,-171,3993,705
4908,-216,3993,594
4909,-216,3882,525
4910,-279,4038,525
4911,-279,4038,609
4912,-195,4011,609
4913,-117,4011,534
4914,-117,3960,429
4915,-60,3897,429
4916,-60,3897,294
4917,-171,3933,294
4918,-201,3933,255
4919,-201,3882,189
4920,-102,3882,189
4921,-102,3855,504
4922,-240,4110,504
4923,-912,4110,900
4924,-912,3957,951
4925,-1083,3957,951
4926,-1083,3810,837
4927,-615,4002,837
4928,-141,4002,861
4929,-141,4089,792
4930,93,4089,792
4931,93,4143,792
4932,-15,4170,792
4933,-51,4170,861
4934,-51,4218,861
4935,-114,4218,900
4936,-114,4212,876
4937,-180,4170,876
4938,-252,4170,792
4939,-252,4113,792
4940,-231,4113,624
4941,-231,4134,525
4942,-147,4068,525
4943,-147,4068,429
4944,-231,4032,429
4945,-273,4032,396
4946,-273,3999,399
4947,-285,4005,399
4948,-285,4005,426
4949,-420,4077,426
4950,-612,4077,600
4951,-612,3960,486
4952,-495,3981,486
4953,-495,3981,576
4954,-282,3981,576
4955,-288,3981,474
4956,-288,4074,504
4957,-186,4074,504
4958,-186,4083,495
4959,-222,4053,495
4960,-387,4053,591
4961,-387,4119,690
4962,-342,4119,690
4963,-342,4119,711
4964,-348,4077,711
4965,-474,4077,672
4966,-474,3993,624
4967,-504,3993,624
4968,-504,3966,624
4969,-405,4053,624
4970,-291,4053,576
4971,-291,4005,576
4972,-411,4005,540
4973,-411,4011,549
4974,-408,4077,549
4975,-354,4077,579
4976,-354,3978,579
4977,-429,3978,489
4978,-429,3873,489
4979,-441,3873,489
4980,-441,3873,591
4981,-459,4059,591
4982,-321,4059,594
4983,-321,4041,576
4984,-408,4038,576
4985,-408,4038,630
4986,-465,4014,630
4987,-456,4014,561
4988,-456,3999,606
4989,-447,3999,606
4990,-447,3981,546
4991,-321,4038,546
4992,-171,4038,570
4993,-171,4059,480
4994,-234,4059,480
4995,-234,3999,615
4996,-279,4029,615
4997,-537,4029,531
4998,-537,3963,456
4999,-417,3963,456
5000,-417,3999,465
5001,-210,4110,465
5002,-99,4110,441
5003,-99,4050,441
5004,-228,4050,441
5005,-228,4110,510
5006,-360,4011,510
5007,-267,4011,495
5008,-267,4065,495
5009,-309,4065,534
5010,-309,4161,531
5011,-246,4026,531
5012,-246,4026,519
5013,-333,4119,519
5014,-405,4119,600
5015,-405,4023,495
5016,-360,4089,495
5017,-360,4089,531
5018,-186,4053,531
5019,-129,4053,486
5020,-129,4080,480
5021,-423,3948,480
5022,-423,3948,519
5023,-474,4068,519
5024,-402,4068,486
5025,-402,4026,384
5026,-378,4026,384
5027,-378,4050,426
5028,-270,3972,426
5029,-333,3972,369
5030,-333,4056,465
5031,-297,4056,465
5032,-297,4059,459
5033,-333,4047,459
5034,-288,4047,465
5035,-288,4131,540
5036,-285,4131,540
5037,-285,4008,495
5038,-351,3954,495
5039,-264,3954,384
5040,-264,4104,384
5041,-171,4104,489
5042,-171,4161,456
5043,-231,4125,456
5044,-306,4125,465
5045,-306,4068,465
5046,-291,4068,516
5047,-291,4050,501
5048,-360,4035,501
5049,-360,4035,399
5050,-375,4038,399
5051,-315,4038,426
5052,-315,4035,345
5053,-360,4065,345
5054,-360,4065,390
5055,-309,4092,390
5056,-246,4092,351
5057,-246,4095,495
5058,-303,4035,495
5059,-303,4035,456
5060,-444,3999,456
5061,-387,3999,381
5062,-387,3981,444
5063,-360,3999,444
5064,-360,3999,384
5065,-351,4053,384
5066,-315,4053,456
5067,-315,4146,456
5068,-354,4146,456
5069,-354,4113,396
5070,-390,3981,396
5071,-441,3981,360
5072,-441,4080,426
5073,-321,4080,426
5074,-321,4080,399
5075,-351,4074,399
5076,-372,4074,315
5077,-372,4038,315
5078,-333,4038,321
5079,-333,4041,303
5080,-396,4035,303
5081,-372,4035,375
5082,-372,4017,375
5083,-402,4017,354
5084,-402,4080,330
5085,-348,4101,330
5086,-348,4101,384
5087,-285,4155,384
5088,-249,4155,366
5089,-249,4029,339
5090,-447,4047,339
5091,-447,4047,339
5092,-390,4068,339
5093,-321,4068,354
5094,-321,4095,339
5095,-411,4095,339
5096,-411,4065,366
5097,-411,4065,366
5098,-408,4065,324
5099,-408,4080,399
5100,-417,4080,399
5101,-417,4032,354
5102,-447,4053,354
5103,-402,4053,339
5104,-402,4068,309
5105,-378,4068,309
5106,-378,4056,294
5107,-411,4068,294
5108,-384,4068,321
5109,-384,4062,321
5110,-348,4062,279
5111,-348,4083,330
5112,-300,4056,330
5113,-339,4056,288
5114,-339,4083,288
5115,-402,4083,285
5116,-402,4080,279
5117,-408,4044,279
5118,-408,4044,336
5119,-435,4059,336
5120,-408,4059,300
5121,-408,4083,300
5122,-441,4032,300
5123,-441,4032,309
5124,-489,4089,309
5125,-417,4089,375
5126,-417,4032,270
5127,-459,4032,270
5128,-459,4083,351
5129,-429,4047,351
5130,-441,4047,354
5131,-441,4080,270
5132,-444,4080,270
5133,-444,4083,309
5134,-435,4089,309
5135,-402,4089,258
5136,-402,4044,264
5137,-402,4044,264
5138,-402,4047,366
5139,-420,4053,366
5140,-453,4053,288
5141,-453,4044,288
5142,-396,4044,300
5143,-396,4083,240
5144,-417,4044,240
5145,-405,4044,273
5146,-405,4044,273
5147,-360,4044,264
5148,-360,4101,285
5149,-378,4044,285
5150,-378,4044,288
5151,-489,4047,288
5152,-411,4047,330
5153,-411,4077,375
5154,-366,4089,375
5155,-366,4089,273
5156,-429,4062,273
5157,-456,4062,279
5158,-456,4044,285
5159,-429,4005,285
5160,-429,4005,285
5161,-435,4077,285
5162,-417,4077,273
5163,-417,4044,354
5164,-504,4044,354
5165,-504,4065,273
5166,-486,4074,273
5167,-453,4074,303
5168,-453,4035,321
5169,-465,4035,321
5170,-465,3987,294
5171,-444,4026,294
5172,-438,4026,303
5173,-438,4125,303
5174,-417,4125,405
5175,-417,4083,381
5176,-507,4053,381
5177,-549,4053,351
5178,-549,3984,351
5179,-492,3984,336
5180,-492,4062,336
5181,-441,4065,336
5182,-390,4065,294
5183,-390,4089,294
5184,-462,4089,339
5185,-462,4062,315
5186,-417,4056,315
5187,-417,4056,303
5188,-441,4080,303
5189,-492,4080,330
5190,-492,4056,258
5191,-360,4011,258
5192,-360,4011,288
5193,-369,4062,288
5194,-504,4062,345
5195,-504,4041,288
5196,-546,4041,288
5197,-546,4005,285
5198,-441,4044,285
5199,-477,4044,273
5200,-477,4080,294
5201,-564,4080,294
5202,-564,4038,279
5203,-480,4050,279
5204,-474,4050,243
5205,-474,4059,243
5206,-429,4059,285
5207,-429,4026,264
5208,-438,4068,264
5209,-387,4068,315
5210,-387,4095,315
5211,-459,4095,285
5212,-459,4038,273
5213,-402,4107,273
5214,-402,4107,330
5215,-453,4131,330
5216,-465,4131,300
5217,-465,4059,294
5218,-441,4050,294
5219,-441,4050,309
5220,-420,4080,309
5221,-441,4080,294
5222,-441,4077,324
5223,-441,4077,324
5224,-441,4068,336
5225,-462,4107,336
5226,-477,4107,309
5227,-477,4059,381
5228,-618,4059,381
5229,-618,4065,396
5230,-645,3996,396
5231,-411,3996,399
5232,-411,4059,381
5233,-375,4059,381
5234,-375,4011,531
5235,-606,3882,531
5236,-1080,3882,777
5237,-1080,4005,777
5238,-978,4005,1032
5239,-978,4272,1086
5240,-396,4521,1086
5241,-396,4521,1248
5242,54,4299,1248
5243,-420,4299,1488
5244,-420,4380,1830
5245,-885,4500,1830
5246,-885,4500,2124
5247,-435,4761,2124
5248,168,4761,2526
5249,168,5205,2973
5250,75,5469,2973
5251,75,5469,3270
5252,-24,5232,3270
5253,-702,5232,3453
5254,-702,5031,3615
5255,-831,5031,3615
5256,-831,5454,3942
5257,129,5970,3942
5258,468,5970,4221
5259,468,6447,4221
5260,465,6447,4221
5261,465,6135,3885
5262,-498,5847,3885
5263,-402,5847,3606
5264,-402,5808,3423
5265,-9,5808,3423
5266,-9,6057,3192
5267,393,6120,3192
5268,417,6120,3102
5269,417,5952,3102
5270,-336,5952,2832
5271,-336,5532,2568
5272,-372,5214,2568
5273,-201,5214,2442
5274,-201,5250,2442
5275,198,5250,2331
5276,198,5364,2406
5277,984,5271,2406
5278,984,5271,2445
5279,762,4365,2445
5280,-285,4365,2271
5281,-285,3471,2337
5282,-855,3189,2337
5283,-855,3189,2451
5284,-477,3471,2451
5285,402,3471,2532
5286,402,3726,2481
5287,1167,3726,2481
5288,1167,3168,2220
5289,1347,2655,2220
5290,822,2655,2040
5291,822,2163,1845
5292,450,2163,1845
5293,450,1770,1890
5294,207,1485,1890
5295,261,1485,2046
5296,261,1179,2046
5297,609,1179,2064
5298,609,1050,2130
5299,801,867,2130
5300,984,867,2025
5301,984,441,2025
5302,1116,441,2076
5303,1116,387,2049
5304,1122,-48,2049
5305,1035,-48,1911
5306,1035,-132,1911
5307,1149,-132,2079
5308,1149,15,2145
5309,1536,-327,2145
5310,1536,-327,2250
5311,1632,-339,2250
5312,1557,-339,2337
5313,1557,-423,2019
5314,978,-852,2019
5315,978,-852,1458
5316,783,-1398,1458
5317,975,-1398,1227
5318,975,-1179,1221
5319,1434,-1077,1221
5320,1434,-1077,1482
5321,1506,-1203,1482
5322,936,-1203,1437
5323,936,-1242,1323
5324,744,-1617,1323
5325,744,-1617,1233
5326,558,-1599,1233
5327,666,-1599,1389
5328,666,-1602,1524
5329,852,-1602,1524
5330,852,-1110,1638
5331,1494,-1020,1638
5332,1455,-1020,1599
5333,1455,-1305,1668
5334,990,-1305,1668
5335,990,-1167,1875
5336,930,-900,1875
5337,885,-900,1986
5338,885,-909,1986
5339,960,-909,1950
5340,960,-936,2019
5341,1233,-495,2019
5342,1281,-495,2322
5343,1281,-489,2322
5344,1074,-489,2517
5345,1074,78,2661
5346,828,-114,2661
5347,375,-114,2808
5348,375,-252,2808
5349,-258,-252,2862
5350,-258,18,2517
5351,60,435,2517
5352,60,435,2583
5353,1395,702,2583
5354,1149,702,2871
5355,1149,972,3204
5356,237,879,3204
5357,237,879,2967
5358,-651,1284,2967
5359,711,1284,2988
5360,711,1575,3483
5361,357,1830,3483
5362,357,1830,3624
5363,-474,1338,3624
5364,-1164,1338,3177
5365,-1164,1764,2934
5366,294,1764,2934
5367,294,2103,3354
5368,1710,2838,3354
5369,2421,2838,3666
5370,2421,2919,3885
5371,477,2919,3885
5372,477,2760,3624
5373,-402,2052,3624
5374,-441,2052,3750
5375,-441,2913,4005
5376,228,2913,4005
5377,228,3432,3789
5378,-387,3174,3789
5379,-600,3174,3129
5380,-600,2712,3129
5381,969,2712,2988
5382,969,3417,3510
5383,1698,4008,3510
5384,582,4008,3576
5385,582,3885,3576
5386,-153,3885,3234
5387,-153,3675,3294
5388,219,3837,3294
5389,219,3837,3750
5390,96,4092,3750
5391,-201,4092,3912
5392,-201,3990,3534
5393,-459,3708,3534
5394,-459,3708,2982
5395,-480,3870,2982
5396,108,3870,2772
5397,108,4290,2757
5398,765,4542,2757
5399,765,4542,2658
5400,1155,4341,2658
5401,423,4341,2673
5402,423,4113,2904
5403,-144,4113,2904
5404,-144,4086,3018
5405,69,4296,3018
5406,1044,4296,3069
5407,1044,4413,3084
5408,1575,4413,3084
5409,1575,4395,3162
5410,1266,4347,3162
5411,321,4347,3123
5412,321,4200,3087
5413,72,4200,3087
5414,72,4251,2943
5415,471,4353,2943
5416,582,4353,2691
5417,582,4425,2691
5418,363,4425,2310
5419,363,3885,2460
5420,-375,4197,2460
5421,-1206,4197,2481
5422,-1206,4173,2481
5423,-816,4173,2250
5424,-816,4200,1989
5425,-132,4092,1989
5426,609,4092,1758
5427,609,3957,1758
5428,432,3957,1587
5429,432,3693,1833
5430,-117,3891,1833
5431,-117,3891,2109
5432,-888,4056,2109
5433,-1062,4056,2346
5434,-1062,4227,2196
5435,-630,4038,2196
5436,-630,4038,1809
5437,-360,4002,1809
5438,-39,4002,1404
5439,-39,3987,1302
5440,375,3939,1302
5441,375,3939,1032
5442,105,3957,1032
5443,-270,3957,870
5444,-270,3828,642
5445,-324,3828,642
5446,-324,3798,471
5447,-135,3828,471
5448,57,3828,429
5449,57,4023,405
5450,-75,4023,405
5451,-75,4047,336
5452,-165,3873,336
5453,-45,3873,396
5454,-45,3693,675
5455,-210,3693,675
5456,-210,3846,957
5457,-489,4119,957
5458,-513,4119,1344
5459,-513,4245,1344
5460,-384,4245,1503
5461,-384,4143,1569
5462,-300,3960,1569
5463,-57,3960,1422
5464,-57,4116,1422
5465,210,4116,1302
5466,210,4095,1053
5467,39,4104,1053
5468,39,4104,852
5469,-96,4086,852
5470,-126,4086,717
5471,-126,3978,732
5472,-180,4155,732
5473,-180,4155,831
5474,-438,3846,831
5475,-582,3846,765
5476,-582,3747,747
5477,-435,4035,747
5478,-435,4035,882
5479,-270,4143,882
5480,-384,4143,792
5481,-384,3936,510
5482,-597,3750,510
5483,-597,3750,324
5484,-633,3786,324
5485,-324,3786,405
5486,-324,4098,411
5487,-210,4098,411
5488,-210,4104,354
5489,-204,4014,354
5490,-255,4014,336
5491,-255,3960,360
5492,-369,3960,360
5493,-369,3849,339
5494,-558,3987,339
5495,-402,3987,180
5496,-402,3945,213
5497,-150,3945,213
5498,-150,4056,321
5499,-153,4062,321
5500,-177,4062,399
5501,-177,4185,399
5502,-369,4185,471
5503,-369,3990,345
5504,-678,3855,345
5505,-678,3855,384
5506,-444,3987,384
5507,45,3987,489
5508,45,4269,585
5509,-99,4056,585
5510,-99,4056,336
5511,-489,3951,336
5512,-663,3951,381
5513,-663,3894,396
5514,-459,4164,396
5515,-459,4164,486
5516,-102,4179,486
5517,-234,4179,459
5518,-234,4053,534
5519,-348,4053,534
5520,-348,4029,711
5521,-435,4125,711
5522,-462,4125,966
5523,-462,4314,1206
5524,-495,4314,1206
5525,-495,4437,1383
5526,-576,4560,1383
5527,-738,4560,1332
5528,-738,4398,1068
5529,-831,4398,1068
5530,-831,4107,720
5531,-885,3972,720
5532,-735,3972,384
5533,-735,4062,384
5534,-669,4062,225
5535,-669,4011,54
5536,-714,3924,54
5537,-672,3924,-138
5538,-672,3837,-138
5539,-672,3837,-207
5540,-672,3768,-102
5541,-798,3876,-102
5542,-798,3876,60
5543,-705,4029,60
5544,-645,4029,249
5545,-645,4035,381
5546,-852,3963,381
5547,-852,3963,510
5548,-873,4086,510
5549,-702,4086,690
5550,-702,4167,741
5551,-663,4134,741
5552,-663,4134,696
5553,-762,4101,696
5554,-663,4101,621
5555,-663,4017,456
5556,-705,4017,456
5557,-705,3948,243
5558,-789,3897,243
5559,-768,3897,138
5560,-768,3888,135
5561,-636,3888,135
5562,-636,3834,33
5563,-624,3882,33
5564,-693,3882,153
5565,-693,3897,249
5566,-678,3897,249
5567,-678,3927,213
5568,-666,4002,213
5569,-687,4002,270
5570,-687,4011,270
5571,-816,4011,375
5572,-816,3903,354
5573,-876,4047,354
5574,-906,4047,405
5575,-906,4113,405
5576,-1011,4113,345
5577,-1011,4092,264
5578,-870,4029,264
5579,-870,4029,180
5580,-753,3987,180
5581,-747,3987,153
5582,-747,3903,150
5583,-756,3948,150
5584,-756,3948,60
5585,-780,4035,60
5586,-594,4035,30
5587,-594,4194,249
5588,-522,4227,249
5589,-522,4227,273
5590,-498,4203,273
5591,-615,4203,426
5592,-615,4200,345
5593,-762,4200,345
5594,-762,4194,375
5595,-702,4269,375
5596,-516,4269,420
5597,-516,4425,456
5598,-405,4425,456
5599,-405,4344,474
5600,-459,4086,474
5601,-393,4086,336
5602,-393,4032,174
5603,-333,4032,174
5604,-333,4125,93
5605,-522,4086,93
5606,-744,4086,99
5607,-744,3882,99
5608,-789,3882,-27
5609,-789,3813,-48
5610,-687,3915,-48
5611,-687,3915,54
5612,-687,3906,54
5613,-744,3906,153
5614,-744,3987,213
5615,-798,3972,213
5616,-798,3972,249
5617,-822,4050,249
5618,-855,4050,225
5619,-855,4056,255
5620,-870,4023,255
5621,-870,4023,273
5622,-855,4032,273
5623,-825,4032,258
5624,-825,4002,210
5625,-858,3960,210
5626,-858,3960,120
5627,-804,3972,120
5628,-783,3972,114
5629,-783,3966,153
5630,-792,3966,153
5631,-792,3966,93
5632,-825,3945,93
5633,-684,3945,180
5634,-684,3975,228
5635,-747,3975,228
5636,-747,4074,150
5637,-693,4068,150
5638,-633,4068,168
5639,-633,4050,168
5640,-594,4050,234
5641,-594,4044,180
5642,-618,4011,180
5643,-756,4011,219
5644,-756,4017,219
5645,-780,4017,105
5646,-780,3975,204
5647,-774,3930,204
5648,-774,3930,144
5649,-819,4101,144
5650,-762,4101,240
5651,-762,4101,189
5652,-714,4017,189
5653,-714,4017,189
5654,-801,3999,189
5655,-753,3999,123
5656,-753,4050,150
5657,-585,4092,150
5658,-585,4092,168
5659,-642,4047,168
5660,-807,4047,204
5661,-807,4026,210
5662,-705,4026,210
5663,-705,4062,144
5664,-636,4104,144
5665,-720,4104,195
5666,-720,4095,243
5667,-813,4095,243
5668,-813,4083,78
5669,-858,4068,78
5670,-801,4068,183
5671,-801,4059,129
5672,-837,4059,129
5673,-837,3975,90
5674,-807,3993,90
5675,-834,3993,78
5676,-834,3984,78
5677,-807,3984,69
5678,-807,4068,228
5679,-813,4029,228
5680,-750,4029,195
5681,-750,4056,195
5682,-786,4056,258
5683,-786,4086,225
5684,-753,4056,225
5685,-789,4056,144
5686,-789,4065,144
5687,-714,4065,168
5688,-714,4014,135
5689,-627,4026,135
5690,-627,4026,108
5691,-606,3960,108
5692,-669,3960,90
5693,-669,3993,180
5694,-687,3984,180
5695,-687,3984,219
5696,-618,4101,219
5697,-675,4101,285
5698,-675,4101,243
5699,-771,4032,243
5700,-771,4032,225
5701,-921,3996,225
5702,-879,3996,183
5703,-879,3978,123
5704,-807,3978,123
5705,-807,4023,114
5706,-744,3999,114
5707,-705,3999,75
5708,-705,4008,30
5709,-651,4008,30
5710,-651,4005,93
5711,-720,3981,93
5712,-729,3981,183
5713,-729,3927,189
5714,-732,3927,189
5715,-732,4002,240
5716,-843,4056,240
5717,-939,4056,225
5718,-939,4089,225
5719,-927,4089,165
5720,-927,4029,168
5721,-891,3993,168
5722,-858,3993,165
5723,-858,3981,165
5724,-843,3981,90
5725,-843,4035,75
5726,-903,4011,75
5727,-903,4011,120
5728,-798,4131,120
5729,-684,4131,105
5730,-684,4194,180
5731,-597,4107,180
5732,-597,4107,114
5733,-618,4029,114
5734,-714,4029,129
5735,-714,4032,150
5736,-801,4017,150
5737,-801,4017,78
5738,-819,4023,78
5739,-687,4023,90
5740,-687,4077,108
5741,-651,4056,108
5742,-651,4056,45
5743,-732,3993,45
5744,-735,3993,63
5745,-735,3951,39
5746,-675,3951,39
5747,-675,4002,78
5748,-612,3999,78
5749,-606,3999,69
5750,-606,4077,174
5751,-648,4077,174
5752,-648,4155,84
5753,-768,4032,84
5754,-873,4032,183
5755,-873,3846,288
5756,-819,3846,288
5757,-819,3888,579
5758,-897,4224,579
5759,-855,4224,630
5760,-855,4572,630
5761,-786,4572,915
5762,-786,4557,1113
5763,-1098,4212,1113
5764,-1308,4212,1122
5765,-1308,4224,1122
5766,-1311,4224,1353
5767,-1311,4494,1227
5768,-1029,4320,1227
5769,-1029,4320,1293
5770,-471,4671,1293
5771,-255,4671,1683
5772,-255,4737,2145
5773,-852,4896,2145
5774,-852,4896,2322
5775,-1164,4860,2322
5776,-1032,4860,2460
5777,-1032,5151,2526
5778,-528,5217,2526
5779,-528,5217,2646
5780,-642,5016,2646
5781,-1035,5016,2727
5782,-1035,5091,2712
5783,-924,5091,2712
5784,-924,5127,2751
5785,-579,5109,2751
5786,-855,5109,2736
5787,-855,5013,2520
5788,-723,5013,2520
5789,-723,4953,2472
5790,-489,5118,2472
5791,-309,5118,2535
5792,-309,5064,2421
5793,-837,5064,2421
5794,-837,4782,2415
5795,-735,4896,2415
5796,-153,4896,2502
5797,-153,5160,2502
5798,132,5160,2598
5799,132,5031,2697
5800,375,4896,2697
5801,-336,4896,2763
5802,-336,4473,2763
5803,-1182,4473,2607
5804,-1182,4059,2688
5805,-987,4110,2688
5806,-390,4110,2817
5807,-390,4302,2817
5808,39,4302,2778
5809,39,4014,2682
5810,117,3921,2682
5811,117,3921,2466
5812,369,3360,2466
5813,138,3360,2247
5814,138,2901,2235
5815,27,2670,2235
5816,27,2670,2577
5817,132,3201,2577
5818,597,3201,2673
5819,597,2820,2547
5820,783,2820,2547
5821,783,2388,2355
5822,624,1941,2355
5823,504,1941,2340
5824,504,1932,2430
5825,594,1932,2430
5826,594,1857,2532
5827,678,1539,2532
5828,699,1539,2586
5829,699,1365,2673
5830,1098,1365,2673
5831,1098,1473,2742
5832,1887,1299,2742
5833,1095,1299,2421
5834,1095,630,2199
5835,303,630,2199
5836,303,174,2370
5837,486,156,2370
5838,1335,156,2586
5839,1335,267,2586
5840,1644,267,2712
5841,1644,630,2871
5842,1560,684,2871
5843,1314,684,2979
5844,1314,312,2979
5845,1179,312,2712
5846,1179,-51,2526
5847,1269,-285,2526
5848,1269,-285,2370
5849,1368,-141,2370
5850,1512,-141,2400
5851,1512,-180,2271
5852,1692,-342,2271
5853,1692,-342,2250
5854,1443,-507,2250
5855,969,-507,2055
5856,969,-732,1734
5857,1047,-843,1734
5858,1047,-843,1557
5859,1431,-924,1557
5860,1347,-924,1899
5861,1347,-663,2016
5862,1233,-663,2016
5863,1233,-654,1929
5864,1176,-603,1929
5865,1230,-603,1806
5866,1230,-942,1824
5867,1164,-942,1824
5868,1164,-909,1956
5869,1158,-735,1956
5870,1020,-735,2046
5871,1020,-570,1950
5872,1104,-570,1950
5873,1104,-381,1971
5874,1590,-351,1971
5875,1458,-351,2142
5876,1458,-351,2142
5877,525,-351,2211
5878,525,-261,2160
5879,603,-204,2160
5880,1374,-204,2562
5881,1374,306,2562
5882,1656,306,2964
5883,1656,468,2997
5884,1230,594,2997
5885,1230,594,2601
5886,765,633,2601
5887,1035,633,2556
5888,1035,549,2868
5889,870,840,2868
5890,870,840,3198
5891,252,1041,3198
5892,234,1041,3039
5893,234,1503,3048
5894,1506,1743,3048
5895,1506,1743,3243
5896,1701,1635,3243
5897,294,1635,3444
5898,294,1515,3147
5899,-921,1515,3147
5900,-921,1608,2811
5901,432,2136,2811
5902,1797,2136,3114
5903,1797,2526,3117
5904,888,2526,3117
5905,888,2715,2652
5906,-426,2556,2652
5907,-210,2556,2040
5908,-210,2193,2547
5909,1533,2193,2547
5910,1533,2835,3078
5911,1869,3192,3078
5912,126,3192,3213
5913,126,3279,3213
5914,-1308,3279,2847
5915,-1308,2946,2907
5916,-357,3027,2907
5917,783,3027,3549
5918,783,3918,3549
5919,537,3918,4056
5920,537,4197,3855
5921,-612,3807,3855
5922,-612,3807,3243
5923,-318,3471,3243
5924,519,3471,3615
5925,519,4224,4065
5926,-48,4248,4065
5927,-48,4248,3966
5928,-606,4080,3966
5929,-936,4080,3513
5930,-936,3717,3054
5931,24,3717,3054
5932,24,3903,3345
5933,765,4359,3345
5934,390,4359,3345
5935,390,4215,2988
5936,-63,4215,2988
5937,-63,3930,2721
5938,-390,3762,2721
5939,-144,3762,2736
5940,-144,4197,2778
5941,-153,4197,2778
5942,-153,4383,2496
5943,-222,4143,2496
5944,426,4143,2181
5945,426,3996,2181
5946,795,3996,2205
5947,795,4107,2256
5948,162,4380,2256
5949,-402,4380,2214
5950,-402,4254,2214
5951,-15,4254,2061
5952,-15,4032,2040
5953,675,3861,2040
5954,492,3861,2325
5955,492,4320,2325
5956,-279,4320,2496
5957,-279,4143,2511
5958,-522,4104,2511
5959,-522,4104,2397
5960,-15,4134,2397
5961,225,4134,2325
5962,225,4239,2160
5963,186,4185,2160
5964,186,4185,1854
5965,156,4182,1854
5966,60,4182,1659
5967,60,4098,1392
5968,267,3954,1392
5969,267,3954,1467
5970,183,4002,1467
5971,-1113,4002,1800
5972,-1113,4032,1800
5973,-1542,4032,1800
5974,-1542,3630,1473
5975,-1098,3534,1473
5976,-372,3534,1308
5977,-372,3804,1263
5978,45,3804,1263
5979,45,3942,1473
5980,192,4017,1473
5981,-495,4017,1824
5982,-495,4068,1989
5983,-912,4068,1989
5984,-912,3894,1893
5985,-696,3855,1893
5986,-273,3855,1824
5987,-273,4005,1674
5988,0,4005,1674
5989,0,4044,1449
5990,-33,4014,1449
5991,-120,4014,1236
5992,-120,3879,1236
5993,-165,3879,1113
5994,-165,4026,1083
5995,-126,3993,1083
5996,-216,3993,951
5997,-216,3975,951
5998,-126,3975,897
5999,-126,3939,810
6000,-60,3801,810
6001,-60,3801,846
6002,-279,3864,846
6003,-285,3864,720
6004,-285,3930,810
6005,-180,3906,810
6006,-180,3906,822
6007,-84,3912,822
6008,-111,3912,747
6009,-111,3975,852
6010,-84,3966,852
6011,-84,3966,786
6012,-267,3837,786
6013,-384,3837,837
6014,-384,3846,915
6015,-444,3846,915
6016,-444,3948,1023
6017,-453,3954,1023
6018,-285,3954,1062
6019,-285,3993,1137
6020,-183,3993,1137
6021,-183,4011,1146
6022,-333,4017,1146
6023,-462,4017,1173
6024,-462,3993,1152
6025,-525,3993,1152
6026,-525,4032,1122
6027,-579,3981,1122
6028,-348,3981,1062
6029,-348,4062,1062
6030,-141,4062,1038
6031,-141,4002,951
6032,-198,3984,951
6033,-288,3984,870
6034,-288,3930,870
6035,-423,3930,825
6036,-423,3957,822
6037,-537,3963,822
6038,-537,3963,870
6039,-489,3858,870
6040,-447,3858,807
6041,-447,3849,822
6042,-411,3894,822
6043,-411,3894,825
6044,-393,3927,825
6045,-480,3927,882
6046,-480,4005,897
6047,-354,4005,897
6048,-354,4005,861
6049,-249,4041,861
6050,-210,4041,822
6051,-210,3987,777
6052,-198,3999,777
6053,-198,3999,891
6054,-315,4089,891
6055,-393,4089,891
6056,-393,3999,900
6057,-396,3999,900
6058,-396,4068,900
6059,-264,3978,900
6060,-195,3978,816
6061,-195,3978,762
6062,-282,3978,762
6063,-282,3939,711
6064,-342,3939,711
6065,-351,3939,747
6066,-351,3993,861
6067,-417,3993,861
6068,-417,4056,930
6069,-408,4032,930
6070,-411,4032,900
6071,-411,3954,900
6072,-402,3954,771
6073,-402,3873,711
6074,-393,3924,711
6075,-411,3924,771
6076,-411,3921,771
6077,-357,3921,756
6078,-357,3987,831
6079,-267,4011,831
6080,-267,4011,867
6081,-303,4002,867
6082,-264,4002,822
6083,-264,3921,786
6084,-393,3954,786
6085,-393,3954,702
6086,-342,3930,702
6087,-237,3930,756
6088,-237,4044,906
6089,-303,4008,906
6090,-303,4008,867
6091,-384,4026,867
6092,-360,4026,891
6093,-360,4080,831
6094,-252,4080,831
6095,-252,3945,801
6096,-288,4002,801
6097,-297,4002,726
6098,-297,3975,735
6099,-309,3975,735
6100,-309,4026,750
6101,-333,4023,750
6102,-348,4023,792
6103,-348,3978,795
6104,-378,3978,795
6105,-378,4050,807
6106,-270,3957,807
6107,-291,3957,681
6108,-291,3999,681
6109,-297,3999,696
6110,-297,3972,741
6111,-417,3990,741
6112,-354,3990,720
6113,-354,3990,720
6114,-333,3990,741
6115,-333,4014,771
6116,-447,3921,771
6117,-447,3921,687
6118,-525,3963,687
6119,-342,3963,762
6120,-342,4056,735
6121,-291,4077,735
6122,-291,4077,756
6123,-303,4029,756
6124,-339,4029,726
6125,-339,4002,732
6126,-333,4002,732
6127,-333,3870,651
6128,-474,3951,651
6129,-342,3951,666
6130,-342,4044,720
6131,-273,4044,720
6132,-273,4083,687
6133,-378,3999,687
6134,-384,3999,726
6135,-384,3981,711
6136,-348,3981,711
6137,-348,3960,711
6138,-369,4029,711
6139,-297,4029,690
6140,-297,4041,690
6141,-360,4041,696
6142,-360,4065,696
6143,-396,4032,696
6144,-375,4032,747
6145,-375,3993,747
6146,-390,3993,687
6147,-390,4011,696
6148,-375,4008,696
6149,-375,4008,717
6150,-366,4065,717
6151,-354,4065,696
6152,-354,4032,711
6153,-384,4005,711
6154,-384,4005,732
6155,-441,4023,732
6156,-360,4023,636
6157,-360,3993,711
6158,-417,4035,711
6159,-417,4035,711
6160,-369,3999,711
6161,-465,3999,672
6162,-465,3999,672
6163,-498,3999,672
6164,-498,3963,657
6165,-288,4068,657
6166,-267,4068,666
6167,-267,4065,642
6168,-315,4065,642
6169,-315,4005,726
6170,-372,4044,726
6171,-351,4044,672
6172,-351,3978,666
6173,-402,3978,666
6174,-402,4008,642
6175,-354,4023,642
6176,-309,4023,651
6177,-309,4077,651
6178,-306,4077,672
6179,-306,3981,609
6180,-453,3999,609
6181,-453,3999,600
6182,-462,4035,600
6183,-339,4035,606
6184,-339,4104,666
6185,-252,4152,666
6186,-252,4152,687
6187,-195,4155,687
6188,-201,4155,756
6189,-201,4152,681
6190,-336,4152,681
6191,-336,4152,711
6192,-309,4101,711
6193,-342,4101,681
6194,-342,3990,696
6195,-378,3990,696
6196,-378,3936,561
6197,-474,3957,561
6198,-447,3957,615
6199,-447,3978,636
6200,-510,3978,636
6201,-510,3924,675
6202,-522,3897,675
6203,-480,3897,621
6204,-480,3888,621
6205,-456,3888,621
6206,-456,3972,594
6207,-378,4008,594
6208,-360,4008,585
6209,-360,3963,585
6210,-402,3963,555
6211,-402,3996,636
6212,-375,4023,636
6213,-315,4023,666
6214,-315,4077,666
6215,-351,4077,696
6216,-351,4035,726
6217,-333,4092,726
6218,-333,4092,717
6219,-351,4035,717
6220,-420,4035,690
6221,-420,4005,594
6222,-471,3993,594
6223,-471,3993,546
6224,-459,3990,546
6225,-438,3990,681
6226,-438,3972,591
6227,-435,3990,591
6228,-435,3990,621
6229,-447,4008,621
6230,-447,4008,624
6231,-447,4053,564
6232,-408,4053,564
6233,-408,4074,630
6234,-357,4017,630
6235,-351,4017,645
6236,-351,4044,609
6237,-369,4044,609
6238,-369,4053,624
6239,-396,4041,624
6240,-288,4041,681
6241,-288,4086,624
6242,-303,4086,624
6243,-303,4047,630
6244,-336,4002,630
6245,-321,4002,591
6246,-321,3999,591
6247,-420,3999,594
6248,-420,3984,630
6249,-435,4056,630
6250,-405,4056,615
6251,-405,4038,615
6252,-426,4038,621
6253,-426,4002,576
6254,-459,3957,576
6255,-459,3957,546
6256,-429,3963,546
6257,-456,3963,600
6258,-456,4047,666
6259,-423,4068,666
6260,-423,4068,645
6261,-357,4002,645
6262,-351,4002,624
6263,-351,4005,615
6264,-384,4029,615
6265,-384,4029,666
6266,-411,4032,666
6267,-516,4032,756
6268,-516,4014,657
6269,-462,4014,657
6270,-462,3975,630
6271,-402,3984,630
6272,-429,3984,651
6273,-429,3999,681
6274,-510,3999,681
6275,-510,4005,900
6276,-642,4101,900
6277,-681,4101,1038
6278,-681,4125,1131
6279,-723,4125,1131
6280,-723,4194,1191
6281,-723,4086,1191
6282,-444,4086,1116
6283,-444,4089,1257
6284,-264,4089,1257
6285,-264,4242,1479
6286,-186,4356,1479
6287,-387,4356,1587
6288,-387,4299,1587
6289,-594,4299,1689
6290,-594,4233,1824
6291,-528,4338,1824
6292,-528,4338,2040
6293,-315,4395,2040
6294,-321,4395,2196
6295,-321,4527,2205
6296,-585,4407,2205
6297,-585,4407,2382
6298,-840,4449,2382
6299,-699,4449,2535
6300,-699,4608,2667
6301,-444,4695,2667
6302,-444,4695,2643
6303,-333,4740,2643
6304,-24,4740,2562
6305,-24,4623,2631
6306,279,4533,2631
6307,279,4533,2808
6308,270,4728,2808
6309,39,4728,2883
6310,39,4770,2907
6311,39,4770,2907
6312,39,4593,2853
6313,-111,4488,2853
6314,57,4488,2892
6315,57,4644,3054
6316,711,4644,3054
6317,711,4719,3147
6318,957,4779,3147
6319,201,4779,3027
6320,201,4284,2883
6321,-360,4284,2883
6322,-360,4287,2691
6323,-183,4236,2691
6324,315,4236,2586
6325,315,4245,2541
6326,609,4245,2541
6327,609,4173,2406
6328,534,3942,2406
6329,387,3942,2256
6330,387,3561,2256
6331,642,3561,2115
6332,642,3270,2169
6333,954,3171,2169
6334,597,3171,2412
6335,597,3075,2412
6336,252,3075,2397
6337,252,2565,2445
6338,432,2463,2445
6339,432,2463,2712
6340,288,2382,2712
6341,270,2382,2796
6342,270,2112,2958
6343,624,2166,2958
6344,624,2166,3138
6345,936,1992,3138
6346,879,1992,3240
6347,879,1914,3279
6348,732,1626,3279
6349,732,1626,3330
6350,441,1515,3330
6351,624,1515,3315
6352,624,1335,3474
6353,882,1356,3474
6354,882,1356,3651
6355,1017,1440,3651
6356,1053,1440,3615
6357,1053,1245,3546
6358,1038,1245,3546
6359,1038,1146,3444
6360,1128,957,3444
6361,1131,957,3423
6362,1131,747,3438
6363,828,747,3438
6364,828,768,3408
6365,849,498,3408
6366,1068,498,3249
6367,1068,459,3315
6368,1389,459,3315
6369,1389,459,3288
6370,1266,384,3288
6371,1167,384,3210
6372,1167,75,3123
6373,891,75,3123
6374,891,-135,2982
6375,1092,-270,2982
6376,1524,-270,2943
6377,1524,-222,2943
