sequence,AccelerometerX,AccelerometerY,AccelerometerZ
0,1464,-225,3837
1,1464,-504,3750
2,1317,-504,3750
3,1317,-381,3831
4,1044,-246,3831
5,1527,-246,3975
6,1527,-285,3942
7,1590,-285,3942
8,1590,-357,3711
9,1593,-597,3711
10,1407,-597,3615
11,1407,-453,3720
12,1569,-453,3720
13,1569,-450,3816
14,1662,-501,3816
15,1905,-501,3771
16,1905,-126,3771
17,1182,-126,3735
18,1182,-318,3792
19,627,228,3792
20,1200,228,4461
21,1200,162,4461
22,1677,162,4386
23,1677,81,4152
24,1902,387,4152
25,1902,387,4572
26,1878,1245,4572
27,2400,1245,5241
28,2400,1692,5622
29,3093,720,5622
30,3093,720,4140
31,2226,-1356,4140
32,2076,-1356,3168
33,2076,483,4017
34,2679,2220,4017
35,2679,2220,4815
36,2592,2859,4815
37,1851,2859,4965
38,1851,3012,4569
39,720,3012,4569
40,720,2787,3951
41,72,1788,3951
42,-201,1788,3459
43,-201,1251,2838
44,-297,1251,2838
45,-297,924,2460
46,-540,573,2460
47,-675,573,2019
48,-675,-69,2019
49,-600,-69,1734
50,-600,-867,1950
51,-252,-1101,1950
52,-453,-1101,2721
53,-453,-1047,2721
54,-675,-1047,3009
55,-675,-1323,2748
56,-480,-2121,2748
57,-480,-2121,2733
58,-180,-2544,2733
59,-438,-2544,3294
60,-438,-1962,4020
61,-1497,-894,4020
62,-1497,-894,4116
63,-1686,-1026,4116
64,0,-1026,4218
65,0,-1440,4539
66,1317,-1047,4539
67,1317,-1047,4758
68,1131,-783,4758
69,303,-783,4884
70,303,-414,4770
71,-465,-414,4770
72,-465,-525,4740
73,-747,-378,4740
74,-447,-378,4860
75,-447,15,4845
76,-165,15,4845
77,-165,-39,4764
78,-189,18,4764
79,-234,18,4713
80,-234,216,4713
81,-348,216,4509
82,-348,372,4527
83,-360,318,4527
84,-132,318,4719
85,-132,669,4719
86,-48,669,4950
87,-48,1233,5034
88,-42,1452,5034
89,-42,1452,4668
90,-264,1233,4668
91,-303,1233,4176
92,-303,903,3789
93,-198,771,3789
94,-198,771,3483
95,-132,846,3483
96,-30,846,3453
97,-30,1197,3369
98,285,1368,3369
99,285,1368,3408
100,702,1422,3408
101,1155,1422,3384
102,1155,1407,3303
103,1125,1407,3303
104,1125,1260,3117
105,750,1107,3117
106,351,1107,3138
107,351,1212,3183
108,183,1212,3183
109,183,1398,3309
110,318,1458,3309
111,483,1458,3369
112,483,1641,3369
113,708,1641,3375
114,708,1806,3531
115,1212,2253,3531
116,1212,2253,3726
117,1224,2640,3726
118,1299,2640,3867
119,1299,2442,3852
120,1263,2286,3852
121,1263,2286,3669
122,909,2154,3669
123,-1104,2154,3801
124,-1104,1710,4302
125,-1620,1914,4302
126,-1620,1914,3972
127,573,2283,3972
128,2163,2283,4005
129,2163,2772,4182
130,2130,2721,4182
131,2130,2721,4035
132,759,2421,4035
133,-201,2421,3513
134,-201,2004,2811
135,-162,2004,2811
136,-162,2007,2322
137,426,2148,2322
138,1656,2148,2121
139,1656,2541,2151
140,2193,2541,2151
141,2193,2427,2577
142,1752,2634,2577
143,960,2634,3138
144,960,2787,3189
145,1185,2787,3189
146,1185,2982,3258
147,1725,3141,3258
148,1989,3141,3270
149,1989,3462,3270
150,1848,3462,3057
151,1848,3537,2646
152,1848,3105,2646
153,2559,3105,2265
154,2559,2382,2265
155,2976,2382,2406
156,2976,2094,2703
157,3435,2439,2703
158,3435,2439,2703
159,3588,2928,2703
160,2997,2928,2727
161,2997,3015,2652
162,3033,3174,2652
163,3033,3174,2568
164,3393,3741,2568
165,3672,3741,2526
166,3672,4215,2541
167,2871,4473,2541
168,2871,4473,2691
169,2058,4728,2691
170,1908,4728,2661
171,1908,4848,2688
172,1386,4848,2688
173,1386,4812,2706
174,1158,4746,2706
175,834,4746,2688
176,834,4452,2592
177,345,4452,2592
178,345,4533,2400
179,252,4527,2400
180,42,4527,2391
181,42,4443,2109
182,180,4443,2109
183,180,4065,2004
184,30,4023,2004
185,-81,4023,1833
186,-81,3960,1833
187,12,3960,1794
188,12,3945,1809
189,183,3588,1809
190,351,3588,1653
191,351,3300,1653
192,207,3300,1653
193,207,3129,1620
194,-15,3159,1620
195,-15,3159,1554
196,-384,3222,1554
197,-279,3222,1497
198,-279,3282,1557
199,165,3129,1557
200,165,3129,1668
201,423,2994,1668
202,270,2994,1608
203,270,3360,1392
204,81,3003,1392
205,81,3003,1287
206,69,2643,1287
207,39,2643,1329
208,39,2592,1383
209,138,2592,1383
210,138,2718,1554
211,192,3075,1554
212,321,3075,1659
213,321,3147,1725
214,324,3147,1725
215,324,3252,1650
216,-159,3318,1650
217,-729,3318,1557
218,-729,3171,1257
219,-1092,3171,1257
220,-1092,3075,957
221,-1143,2937,957
222,-939,2937,672
223,-939,2691,651
224,-561,2691,651
225,-561,2733,765
226,-45,2943,765
227,192,2943,930
228,192,3324,930
229,249,3324,1143
230,249,3588,1248
231,264,3807,1248
232,369,3807,1308
233,369,3927,1308
234,459,3927,1308
235,459,3897,1233
236,426,3942,1233
237,426,3942,1287
238,234,4050,1287
239,-57,4050,1131
240,-57,4338,1086
241,-216,4398,1086
242,-216,4398,1083
243,-228,4419,1083
244,-168,4419,972
245,-168,4431,840
246,-153,4338,840
247,-153,4338,786
248,-222,4257,786
249,-372,4257,717
250,-372,4203,609
251,-480,4203,609
252,-480,4035,624
253,-561,3735,624
254,-630,3735,642
255,-630,3681,696
256,-516,3681,696
257,-516,3642,900
258,-417,3780,900
259,-222,3780,951
260,-222,3819,951
261,-99,3819,945
262,-99,3687,906
263,81,3621,906
264,207,3621,876
265,207,3552,876
266,162,3552,861
267,162,3708,762
268,57,3777,762
269,57,3777,756
270,-129,3852,756
271,-102,3852,636
272,-102,3942,540
273,195,4020,540
274,195,4020,504
275,414,4020,504
276,441,4020,474
277,441,4008,546
278,399,3969,546
279,399,3969,516
280,30,3864,516
281,-111,3864,486
282,-111,4056,525
283,-12,4176,525
284,-12,4176,516
285,231,4245,516
286,324,4245,516
287,324,4155,504
288,201,4155,504
289,201,4209,456
290,57,4266,456
291,-189,4266,399
292,-189,4347,444
293,-513,4347,444
294,-513,3999,339
295,-981,4326,339
296,-1005,4326,375
297,-1005,4509,375
298,-735,4509,243
299,-735,4620,135
300,-372,4527,135
301,-111,4527,108
302,-111,4710,108
303,-90,4710,9
304,-90,4599,45
305,-171,4287,45
306,-171,4287,84
307,-309,4470,84
308,-288,4470,150
309,-288,4452,204
310,-189,4332,204
311,-189,4332,249
312,-210,4197,249
313,-384,4197,225
314,-384,4152,144
315,-585,4110,144
316,-585,4110,150
317,-756,4023,150
318,-1095,4023,129
319,-1095,3846,0
320,-1200,3846,0
321,-1200,3912,-48
322,-1176,3939,-48
323,-810,3939,-57
324,-810,3930,-36
325,-714,3930,-36
326,-714,3936,-33
327,-735,4086,-33
328,-633,4086,-123
329,-633,3972,-171
330,-501,3972,-171
331,-501,3864,-72
332,-390,3759,-72
333,-552,3759,-63
334,-552,3855,-63
335,-594,3855,18
336,-594,3975,0
337,-453,4029,0
338,-291,4029,60
339,-291,4116,60
340,-165,4116,204
341,-165,4464,324
342,-348,4287,324
343,-348,4287,351
344,-699,4314,351
345,-948,4314,315
346,-948,4344,315
347,-924,4338,315
348,-924,4338,270
349,-801,4215,270
350,-732,4215,354
351,-732,4221,294
352,-489,4206,294
353,-489,4206,345
354,-171,4044,345
355,-15,4044,294
356,-15,3447,459
357,-126,3471,459
358,-126,3471,600
359,-798,3975,600
360,-1068,3975,471
361,-1068,4194,294
362,-591,4194,294
363,-591,4227,174
364,-9,3957,174
365,174,3957,240
366,174,3945,165
367,-150,3945,165
368,-150,4098,54
369,-150,4161,54
370,165,4161,-93
371,165,4164,-102
372,555,4164,-102
373,555,4113,-78
374,831,4002,-78
375,879,4002,60
376,879,3807,99
377,696,3807,99
378,696,3876,210
379,459,3942,210
380,369,3942,270
381,369,3891,270
382,372,3891,414
383,372,3816,420
384,372,3678,420
385,249,3678,471
386,249,3570,471
387,192,3570,384
388,192,3459,243
389,216,3354,243
390,216,3354,225
391,336,3315,225
392,99,3315,138
393,99,3510,225
394,-180,3702,225
395,-180,3702,255
396,-333,4083,255
397,-264,4083,360
398,-264,4464,624
399,-15,4971,624
400,-15,4971,600
401,276,5202,600
402,633,5202,591
403,633,5235,414
404,855,5235,414
405,855,5103,354
406,918,4968,354
407,666,4968,105
408,666,5028,75
409,180,5028,75
410,180,4977,-111
411,18,4545,-111
412,18,4545,-81
413,18,4155,24
414,0,4155,24
415,0,3876,54
416,-198,3795,54
417,-297,3795,123
418,-297,3756,123
419,-315,3756,165
420,-315,3678,75
421,-387,3651,75
422,-471,3651,69
423,-471,3690,69
424,-558,3690,45
425,-558,3927,39
426,-702,4086,39
427,-702,4086,-48
428,-735,4062,-48
429,-708,4062,-153
430,-708,4044,-252
431,-684,4011,-252
432,-684,4011,-213
433,-483,3960,-213
434,-318,3960,-273
435,-318,3987,-201
436,-180,4017,-201
437,-180,4017,-201
438,-66,3957,-201
439,-69,3957,-36
440,-69,4107,39
441,-147,4107,39
442,-147,4236,84
443,-234,4188,84
444,-291,4188,48
445,-291,4044,-6
446,-357,4044,-6
447,-357,4014,9
448,-321,4053,9
449,-237,4053,-57
450,-237,4092,-111
451,-147,4092,-111
452,-147,4134,-66
453,-165,4110,-66
454,-216,4110,-27
455,-216,4206,-42
456,-252,4206,-42
457,-252,4290,9
458,-279,4221,9
459,-285,4221,15
460,-285,4125,15
461,-360,4125,18
462,-360,4104,-63
463,-420,4062,-63
464,-420,4062,-81
465,-429,4098,-81
466,-333,4098,-126
467,-333,4101,-156
468,-282,4095,-156
469,-282,4095,-231
470,-288,4062,-231
471,-291,4062,-306
472,-291,4059,-267
473,-294,4059,-267
474,-294,4059,-222
475,-249,4047,-222
476,-237,4047,-207
477,-237,4089,-33
478,-267,4089,-33
479,-267,4083,-117
480,-309,3996,-117
481,-306,3996,-78
482,-306,3975,-108
483,-357,3975,-108
484,-357,3978,-141
485,-336,4026,-141
486,-255,4026,-156
487,-255,4041,-123
488,-165,4041,-123
489,-165,4110,-141
490,-201,4092,-141
491,-189,4092,-141
492,-189,4131,-141
493,-216,4131,-87
494,-216,4140,-198
495,-195,4113,-198
496,-198,4113,-156
497,-198,4158,-156
498,-231,4158,-153
499,-231,4176,-102
500,-198,4206,-102
501,-198,4206,-33
502,-198,4269,-33
503,-189,4269,63
504,-189,4293,78
505,-198,4212,78
506,-198,4212,54
507,-81,4083,54
508,-132,4083,54
509,-132,4065,39
510,-237,4059,39
511,-237,4059,-18
512,-342,3984,-18
513,-291,3984,-42
514,-291,3933,-96
515,-321,3933,-96
516,-321,3948,-111
517,-339,4023,-111
518,-318,4023,-126
519,-318,4002,-117
520,-273,4002,-117
521,-273,4083,-153
522,-237,4062,-153
523,-198,4062,-177
524,-198,4056,-126
525,-183,4056,-126
526,-183,4098,-72
527,-255,4095,-72
528,-306,4095,-138
529,-306,4044,-138
530,-324,4044,-102
531,-324,4113,-57
532,-285,4128,-57
533,-258,4128,-96
534,-258,4155,-96
535,-207,4155,-66
536,-207,4131,-42
537,-243,4131,-42
538,-273,4131,15
539,-273,4137,15
540,-270,4137,-63
541,-270,4110,-78
542,-255,4089,-78
543,-255,4089,-81
544,-237,4092,-81
545,-273,4092,-66
546,-273,4116,-66
547,-270,4077,-66
548,-270,4077,-132
549,-231,4065,-132
550,-198,4065,-123
551,-198,4125,-78
552,-225,4149,-78
553,-225,4149,-117
554,-207,4098,-117
555,-183,4098,-108
556,-183,4047,-78
557,-243,4047,-78
558,-243,4107,-93
559,-321,4170,-93
560,-249,4170,-36
561,-249,4194,-141
562,-222,4194,-141
563,-222,4116,-162
564,-222,4077,-162
565,-285,4077,-183
566,-285,4086,-183
567,-327,4086,-168
568,-327,4098,-267
569,-291,4080,-267
570,-249,4080,-186
571,-249,4041,-186
572,-213,4041,-252
573,-213,4080,-213
574,-237,4098,-213
575,-237,4098,-177
576,-267,4164,-177
577,-327,4164,-138
578,-327,4104,-123
579,-264,4044,-123
580,-264,4044,-111
581,-213,4062,-111
582,-237,4062,-102
583,-237,4143,-87
584,-264,4185,-87
585,-264,4185,-141
586,-258,4128,-141
587,-204,4128,-123
588,-204,4104,-123
589,-234,4119,-123
590,-234,4119,-93
591,-288,4161,-93
592,-288,4161,-93
593,-288,4152,-147
594,-288,4152,-147
595,-288,4125,-78
596,-276,4098,-78
597,-291,4098,-57
598,-291,4131,-117
599,-312,4131,-117
600,-312,4176,-123
601,-243,4086,-123
602,-252,4086,-201
603,-252,4074,-246
604,-267,4074,-246
605,-267,3990,-222
606,-237,3999,-222
607,-327,3999,-132
608,-327,3990,-132
609,-411,3990,-111
610,-411,4011,-57
611,-357,4032,-57
612,-303,4032,-18
613,-303,4032,-18
614,-312,4032,-48
615,-312,4128,24
616,-537,4116,24
617,-537,4116,-18
618,-363,4035,-18
619,-207,4035,-78
620,-207,3873,-141
621,-219,3813,-141
622,-219,3813,-132
623,-165,3909,-132
624,-288,3909,-117
625,-288,4266,-96
626,-372,4410,-96
627,-372,4410,-36
628,-408,4431,-36
629,-321,4431,-81
630,-321,4242,-147
631,-312,4242,-147
632,-312,4146,-303
633,-306,3945,-303
634,-270,3945,-291
635,-270,3966,-342
636,-273,3966,-342
637,-273,4005,-231
638,-180,4026,-231
639,-69,4026,-207
640,-69,4113,-162
641,-144,4113,-162
642,-144,4188,-123
643,-324,4095,-123
644,-591,4095,-6
645,-591,4137,-6
646,-801,4137,-57
647,-801,4203,-96
648,-774,4242,-96
649,-774,4242,0
650,-732,4143,0
651,-564,4143,-102
652,-564,4200,-51
653,-360,4029,-51
654,-360,4029,33
655,-153,3726,33
656,-84,3726,18
657,-84,3762,-66
658,-102,4110,-66
659,-102,4110,24
660,-147,4362,24
661,-429,4362,-123
662,-429,4755,-111
663,-270,4893,-111
664,-270,4893,78
665,-90,4824,78
666,-282,4824,159
667,-282,4395,-51
668,-717,4395,-51
669,-717,3972,-132
670,-924,3702,-132
671,-906,3702,-231
672,-906,3726,-57
673,-510,3726,-57
674,-510,3822,48
675,-84,3843,48
676,12,3843,105
677,12,3633,138
678,-129,3633,138
679,-129,3570,129
680,-336,3537,129
681,-435,3537,93
682,-435,3705,93
683,-267,3705,198
684,-267,3684,228
685,-78,3603,228
686,-78,3603,99
687,-111,3669,99
688,-132,3669,39
689,-132,3729,-93
690,-405,3819,-93
691,-405,3819,-81
692,-510,4170,-81
693,-327,4170,-63
694,-327,4497,-27
695,-189,4743,-27
696,-189,4743,-36
697,-111,4842,-36
698,-81,4842,-18
699,-81,4812,3
700,-147,4812,3
701,-147,4668,99
702,-321,4245,99
703,-459,4245,-57
704,-459,3825,-51
705,-522,3825,-51
706,-522,3852,3
707,-459,3978,3
708,-387,3978,228
709,-387,3975,351
710,-417,3975,351
711,-417,3882,285
712,-495,4005,285
713,-579,4005,279
714,-579,4098,279
715,-549,4098,183
716,-549,4191,114
717,-504,4116,114
718,-387,4116,-12
719,-387,4143,-12
720,-309,4143,-72
721,-309,4149,-141
722,-171,4110,-141
723,-171,4110,-96
724,-282,4131,-96
725,-333,4131,0
726,-333,4065,-18
727,-312,4089,-18
728,-312,4089,0
729,-231,4137,0
730,-186,4137,39
731,-186,4155,3
732,-186,4131,3
733,-186,4131,9
734,-291,4047,9
735,-345,4047,-18
736,-345,4050,-78
737,-240,4104,-78
738,-240,4104,-33
739,-195,4110,-33
740,-243,4110,-42
741,-243,4116,15
742,-309,4116,15
743,-309,4089,-51
744,-321,4110,-51
745,-267,4110,-81
746,-267,4119,-63
747,-267,4119,-63
748,-267,4158,-21
749,-354,4140,-21
750,-363,4140,-108
751,-363,4074,-63
752,-342,4074,-63
753,-342,3978,-12
754,-375,4047,-12
755,-378,4047,-48
756,-378,4083,0
757,-390,4083,0
758,-390,4056,-78
759,-360,4032,-78
760,-324,4032,-87
761,-324,4053,-87
762,-345,4053,-12
763,-345,4065,-78
764,-372,4110,-78
765,-327,4110,-108
766,-327,4125,-108
767,-258,4125,-81
768,-258,4110,-102
769,-213,4101,-102
770,-213,4101,-93
771,-225,4089,-93
772,-273,4089,-123
773,-273,4050,-132
774,-291,4086,-132
775,-291,4086,-72
776,-243,4116,-72
777,-204,4116,-78
778,-204,4137,-93
779,-189,4152,-93
780,-189,4152,-102
781,-243,4134,-102
782,-270,4134,-78
783,-270,4143,-42
784,-243,4140,-42
785,-243,4140,-87
786,-270,4083,-87
787,-273,4083,-102
788,-273,4044,-48
789,-327,4044,-48
790,-327,4104,0
791,-291,4176,0
792,-171,4176,84
793,-171,4176,78
794,-183,4176,78
795,-183,4125,9
796,-282,4137,9
797,-309,4137,-27
798,-309,4074,-6
799,-363,4074,-6
800,-363,4077,-27
801,-372,4107,-27
802,-306,4107,-27
803,-306,4080,-27
804,-249,4080,-27
805,-249,4143,39
806,-291,4107,39
807,-354,4107,-36
808,-354,4041,-36
809,-456,4041,-72
810,-456,4023,3
811,-402,4050,3
812,-327,4050,3
813,-327,4098,3
814,-303,4098,33
815,-303,4092,9
816,-438,4035,9
817,-438,4035,-6
818,-429,4032,-6
819,-354,4032,3
820,-354,4017,90
821,-303,4095,90
822,-303,4095,-27
823,-342,4110,-27
824,-336,4110,-48
825,-336,4077,-6
826,-351,4059,-6
827,-351,4059,-48
828,-288,4059,-48
829,-309,4059,60
830,-309,4104,33
831,-315,4098,33
832,-315,4098,30
833,-306,4017,30
834,-357,4017,-21
835,-357,4029,-48
836,-303,4029,-48
837,-303,4137,3
838,-264,4152,3
839,-336,4152,-27
840,-336,4107,33
841,-390,4107,33
842,-390,4056,3
843,-417,4092,3
844,-342,4092,18
845,-342,4107,15
846,-309,4107,15
847,-309,4158,60
848,-315,4104,60
849,-342,4104,24
850,-342,4098,24
851,-363,4098,-51
852,-363,4074,-42
853,-351,4098,-42
854,-348,4098,3
855,-348,4155,3
856,-288,4155,39
857,-288,4083,3
858,-291,4047,3
859,-291,4047,-66
860,-336,4044,-66
861,-357,4044,-27
862,-357,4014,-18
863,-354,4056,-18
864,-354,4056,54
865,-354,4092,54
866,-273,4092,0
867,-273,4128,-12
868,-288,4107,-12
869,-288,4107,-36
870,-252,4086,-36
871,-312,4086,-33
872,-312,4080,-57
873,-321,4098,-57
874,-321,4098,-48
875,-243,4083,-48
876,-222,4083,-108
877,-222,4110,-102
878,-171,4110,-102
879,-171,4104,-72
880,-288,4080,-72
881,-306,4080,-21
882,-306,4098,18
883,-300,4098,18
884,-300,4089,39
885,-324,4110,39
886,-378,4110,9
887,-378,4104,48
888,-405,4104,48
889,-405,4098,18
890,-366,4065,18
891,-375,4065,15
892,-375,4104,15
893,-360,4104,63
894,-360,4089,45
895,-393,4092,45
896,-384,4092,15
897,-384,4095,15
898,-360,4095,-18
899,-360,4062,-21
900,-381,4065,-21
901,-381,4065,-18
902,-375,4080,-18
903,-423,4080,-36
904,-423,4131,-27
905,-408,4083,-27
906,-408,4083,-18
907,-285,4077,-18
908,-342,4077,-87
909,-342,4104,-36
910,-447,4083,-36
911,-447,4083,-72
912,-462,4092,-72
913,-318,4092,-81
914,-318,4044,-108
915,-213,4044,-108
916,-213,4032,-87
917,-201,4050,-87
918,-324,4050,-33
919,-324,4041,-102
920,-357,4041,-102
921,-357,3981,-93
922,-294,4053,-93
923,-216,4053,-72
924,-216,4062,-33
925,-255,4062,-33
926,-255,4140,0
927,-201,4074,0
928,-276,4074,-21
929,-276,3957,-21
930,-219,3957,-51
931,-219,3909,-168
932,-24,4227,-168
933,-213,4227,9
934,-213,4167,9
935,-189,4167,-87
936,-189,4206,9
937,-222,4023,9
938,-222,4023,-72
939,-273,4077,-72
940,-393,4077,-63
941,-393,4212,-36
942,-489,4086,-36
943,-489,4086,-72
944,-351,4083,-72
945,-270,4083,-72
946,-270,4092,-177
947,-288,4050,-177
948,-288,4050,-123
949,-285,4170,-123
950,-195,4170,-87
951,-195,4200,-126
952,-132,4197,-126
953,-132,4197,-21
954,-150,4032,-21
955,-219,4032,-102
956,-219,4044,-132
957,-381,4044,-132
958,-381,4041,-192
959,-390,4038,-192
960,-264,4038,-156
961,-264,4092,-162
962,-240,4092,-162
963,-240,4191,24
964,-231,4134,24
965,-279,4134,15
966,-279,4116,-63
967,-276,4116,-63
968,-276,4044,-183
969,-273,4029,-183
970,-252,4029,-213
971,-252,4074,-213
972,-255,4074,-123
973,-255,4131,-123
974,-144,4092,-123
975,-150,4092,-102
976,-150,4209,-102
977,120,4209,-168
978,120,4071,-63
979,42,4227,-63
980,-84,4227,-102
981,-84,4098,-102
982,-147,4098,-147
983,-147,4110,-231
984,-15,4050,-231
985,-15,4050,-156
986,27,4209,-156
987,246,4209,-339
988,246,4194,-453
989,549,4338,-453
990,549,4338,-291
991,654,4359,-291
992,837,4359,-327
993,837,4593,-243
994,1188,4518,-243
995,1188,4518,-237
996,1521,4341,-237
997,1671,4341,-306
998,1671,4563,-273
999,1905,4563,-273
1000,1905,4767,-348
1001,2049,4866,-348
1002,2535,4866,-318
1003,2535,4875,-549
1004,2967,4875,-549
1005,2967,5043,-537
1006,2823,4827,-537
1007,2049,4827,-642
1008,2049,4464,-873
1009,2121,4464,-873
1010,2121,4578,-858
1011,2739,4743,-858
1012,3231,4743,-864
1013,3231,5049,-864
1014,3111,5049,-813
1015,3111,5208,-954
1016,2949,4887,-954
1017,2727,4887,-954
1018,2727,4590,-954
1019,2487,4590,-798
1020,2487,4455,-825
1021,2283,4194,-825
1022,2385,4194,-693
1023,2385,4068,-693
1024,2568,4068,-447
1025,2568,3783,-504
1026,2376,3384,-504
1027,2376,3384,-534
1028,2139,3096,-534
1029,2520,3096,-489
1030,2520,3003,-459
1031,3369,3027,-459
1032,3369,3027,-354
1033,3654,3102,-354
1034,2661,3102,-246
1035,2661,2718,-444
1036,1842,2718,-444
1037,1842,2106,-543
1038,2607,1917,-543
1039,4173,1917,-519
1040,4173,2121,-291
1041,4362,2121,-291
1042,4362,1962,-171
1043,3420,1668,-171
1044,2535,1668,-81
1045,2535,1035,-186
1046,2601,1035,-186
1047,2601,525,-63
1048,2979,384,-63
1049,3300,384,99
1050,3300,675,99
1051,3474,675,129
1052,3474,402,189
1053,3384,120,189
1054,2793,120,273
1055,2793,-300,273
1056,2508,-300,225
1057,2508,-492,60
1058,2580,-750,60
1059,2580,-750,285
1060,2484,-747,285
1061,2511,-747,288
1062,2511,-648,303
1063,2556,-786,303
1064,2556,-786,135
1065,2826,-1014,135
1066,2997,-1014,78
1067,2997,-960,9
1068,3060,-882,9
1069,3060,-882,-78
1070,3300,-636,-78
1071,3669,-636,-27
1072,3669,-687,-57
1073,4002,-687,-57
1074,4002,-816,-117
1075,4029,-828,-117
1076,3747,-828,-141
1077,3747,-963,-231
1078,3729,-963,-231
1079,3729,-837,-237
1080,3822,-741,-237
1081,4017,-741,-252
1082,4017,-648,-183
1083,4140,-648,-183
1084,4140,-714,-318
1085,3999,-627,-318
1086,3846,-627,-429
1087,3846,-807,-507
1088,3942,-807,-507
1089,3942,-630,-462
1090,4236,-429,-462
1091,4407,-429,-507
1092,4407,-468,-507
1093,4494,-468,-603
1094,4494,-573,-489
1095,4299,-600,-489
1096,3963,-600,-507
1097,3963,-660,-507
1098,3930,-660,-507
1099,3930,-654,-432
1100,4128,-597,-432
1101,4128,-597,-453
1102,4209,-579,-453
1103,4209,-579,-447
1104,4209,-630,-447
1105,4089,-621,-447
1106,4089,-621,-408
1107,3996,-549,-408
1108,3972,-549,-426
1109,3972,-555,-381
1110,4122,-549,-381
1111,4122,-549,-447
1112,4155,-600,-447
1113,4089,-600,-378
1114,4089,-495,-312
1115,4014,-531,-312
1116,4014,-531,-333
1117,3981,-594,-333
1118,3951,-594,-411
1119,3951,-612,-291
1120,4014,-612,-291
1121,4014,-609,-258
1122,3963,-693,-258
1123,3702,-693,-231
1124,3702,-645,-297
1125,3618,-645,-297
1126,3618,-627,-252
1127,3525,-639,-252
1128,3684,-639,-318
1129,3684,-606,-348
1130,3729,-606,-348
1131,3729,-477,-423
1132,3798,-534,-423
1133,3915,-534,-297
1134,3915,-414,-312
1135,3876,-414,-312
1136,3876,-417,-327
1137,3822,-528,-327
1138,3822,-528,-267
1139,3822,-294,-267
1140,3765,-294,-306
1141,3765,-330,-348
1142,3780,-318,-348
1143,3852,-318,-462
1144,3852,-354,-462
1145,3798,-354,-372
1146,3798,-426,-303
1147,3771,-165,-303
1148,3771,-165,-336
1149,3867,-66,-336
1150,3789,-66,-213
1151,3789,-180,-231
1152,3687,-192,-231
1153,3687,-192,-231
1154,3507,-117,-231
1155,3420,-117,-213
1156,3420,96,-198
1157,3444,129,-198
1158,3444,129,-153
1159,3591,132,-153
1160,3762,132,-186
1161,3762,567,-222
1162,3687,483,-222
1163,3687,483,-312
1164,3762,477,-312
1165,3852,477,-291
1166,3852,972,-333
1167,3879,852,-333
1168,3879,852,-474
1169,3963,822,-474
1170,4059,822,-483
1171,4059,855,-369
1172,3996,855,-369
1173,3996,1371,-276
1174,3894,1113,-276
1175,3873,1113,-306
1176,3873,1080,-183
1177,3864,1080,-183
1178,3864,1149,-258
1179,3945,1347,-258
1180,3969,1347,-312
1181,3969,1530,-357
1182,3834,1530,-357
1183,3834,1470,-198
1184,3708,1506,-198
1185,3639,1506,-141
1186,3639,1725,-141
1187,3627,1725,-243
1188,3627,1995,-369
1189,3774,1890,-369
1190,3813,1890,-408
1191,3813,1929,-408
1192,3759,1929,-243
1193,3759,2070,-273
1194,3534,2223,-273
1195,3534,2223,-267
1196,3468,2439,-267
1197,3555,2439,-423
1198,3555,2379,-453
1199,3651,2373,-453
1200,3651,2373,-468
1201,3723,2310,-468
1202,3714,2310,-312
1203,3714,2226,-288
1204,3318,2550,-288
1205,3318,2550,-153
1206,3033,2478,-153
1207,2967,2478,-141
1208,2967,2382,-63
1209,2898,2382,-63
1210,2898,2391,-12
1211,2898,2487,-12
1212,2850,2487,-18
1213,2850,2760,-42
1214,2634,2760,-42
1215,2634,2889,-72
1216,2457,2937,-72
1217,2343,2937,-93
1218,2343,3063,-96
1219,2589,3063,-96
1220,2589,3255,-81
1221,2826,3348,-81
1222,2904,3348,-6
1223,2904,3555,-6
1224,2601,3555,108
1225,2601,3639,63
1226,2397,3645,63
1227,2313,3645,60
1228,2313,3552,60
1229,2382,3552,3
1230,2382,3714,-108
1231,2388,3738,-108
1232,2388,3738,-231
1233,2307,3702,-231
1234,2220,3702,-348
1235,2220,3765,-306
1236,2385,3894,-306
1237,2385,3894,-192
1238,2454,4002,-192
1239,2262,4002,-141
1240,2262,4017,-72
1241,1914,3894,-72
1242,1914,3894,-123
1243,1728,3843,-123
1244,1749,3843,-192
1245,1749,3855,-273
1246,1833,3765,-273
1247,1833,3765,-291
1248,1578,3843,-291
1249,1536,3843,-237
1250,1536,4011,-153
1251,1602,4011,-153
1252,1602,4080,-141
1253,1578,4011,-141
1254,1335,4011,-132
1255,1335,3963,-261
1256,1155,3963,-261
1257,1155,3969,-273
1258,1365,4014,-273
1259,1371,4014,-339
1260,1371,3918,-363
1261,1230,3918,-363
1262,1230,3984,-291
1263,1230,4122,-291
1264,1149,4122,45
1265,1149,4293,150
1266,1176,4293,150
1267,1176,4515,195
1268,1200,4581,195
1269,1458,4581,114
1270,1458,4404,114
1271,1314,4404,18
1272,1314,4305,-78
1273,900,4068,-78
1274,540,4068,75
1275,540,4092,75
1276,264,4092,99
1277,264,4191,165
1278,387,4404,165
1279,693,4404,204
1280,693,4371,204
1281,999,4371,93
1282,999,4290,84
1283,939,4158,84
1284,939,4158,39
1285,804,4092,39
1286,597,4092,24
1287,597,4104,63
1288,561,4161,63
1289,561,4161,144
1290,555,4266,144
1291,666,4266,210
1292,666,4269,120
1293,609,4095,120
1294,609,4095,78
1295,387,3942,78
1296,318,3942,39
1297,318,3897,30
1298,345,3897,30
1299,345,4065,18
1300,492,4182,18
1301,573,4182,-42
1302,573,4206,-27
1303,687,4206,-27
1304,687,4014,-87
1305,570,3963,-87
1306,396,3963,-138
1307,396,3972,-6
1308,420,3972,-6
1309,420,3957,-156
1310,396,4014,-156
1311,468,4014,-81
1312,468,4041,-21
1313,474,4041,-21
1314,474,4110,90
1315,492,4212,90
1316,537,4212,93
1317,537,4095,93
1318,459,4095,24
1319,459,4032,54
1320,501,4062,54
1321,546,4062,114
1322,546,4104,114
1323,582,4104,159
1324,582,4047,123
1325,420,4020,123
1326,375,4020,180
1327,375,3987,180
1328,441,3987,150
1329,441,3918,234
1330,453,3993,234
1331,441,3993,225
1332,441,4053,225
1333,354,4053,144
1334,354,4005,174
1335,363,3927,174
1336,363,3927,129
1337,345,3879,129
1338,381,3879,24
1339,381,3921,60
1340,435,3987,60
1341,435,3987,30
1342,375,4062,30
1343,324,4062,18
1344,324,4065,45
1345,318,4176,45
1346,318,4176,48
1347,339,4149,48
1348,399,4149,99
1349,399,4089,3
1350,333,4089,3
1351,333,4038,-21
1352,327,4044,-21
1353,402,4044,-51
1354,402,4092,-21
1355,486,4092,-21
1356,486,4101,-72
1357,501,4116,-72
1358,372,4116,9
1359,372,4104,-36
1360,309,4104,-36
1361,309,4002,-126
1362,381,4023,-126
1363,333,4023,-87
1364,333,4044,15
1365,312,4044,15
1366,312,4023,-21
1367,354,4104,-21
1368,468,4104,-27
1369,468,4059,-27
1370,486,4059,18
1371,486,4053,-48
1372,315,4032,-48
1373,228,4032,-57
1374,228,4017,-57
1375,147,4017,-96
1376,147,3969,-102
1377,315,4053,-102
1378,315,4053,-141
1379,372,3906,-141
1380,360,3906,-63
1381,360,3861,9
1382,357,3801,9
1383,357,3801,-33
1384,390,3858,-33
1385,360,3858,-78
1386,360,3990,-57
1387,279,4134,-57
1388,279,4134,-33
1389,315,4218,-33
1390,225,4218,-111
1391,225,4335,-153
1392,132,4440,-153
1393,132,4440,-201
1394,123,4473,-201
1395,72,4473,-183
1396,72,4575,-213
1397,75,4575,-213
1398,75,4533,-261
1399,123,4425,-261
1400,183,4425,-258
1401,183,4314,-177
1402,309,4314,-177
1403,309,4263,-153
1404,285,4146,-153
1405,405,4146,-138
1406,405,3999,-27
1407,387,3999,-27
1408,387,3876,-33
1409,369,3840,-33
1410,348,3840,-27
1411,348,3834,-27
1412,267,3834,15
1413,267,3837,24
1414,282,3816,24
1415,255,3816,30
1416,255,3984,30
1417,159,3984,-21
1418,159,4245,-81
1419,33,4245,-81
1420,24,4245,-108
1421,24,4257,-108
1422,45,4257,-231
1423,45,4326,-198
1424,102,4308,-198
1425,102,4308,-276
1426,228,4131,-276
1427,282,4131,-243
1428,282,4017,-156
1429,351,3942,-156
1430,351,3942,-93
1431,303,3921,-93
1432,348,3921,15
1433,348,3933,-12
1434,309,4023,-12
1435,309,4023,54
1436,306,4044,54
1437,231,4044,54
1438,231,4008,-21
1439,198,4008,-21
1440,198,4071,-33
1441,216,4062,-33
1442,240,4062,-132
1443,240,4047,-93
1444,252,4047,-93
1445,252,4032,-126
1446,213,4137,-126
1447,246,4137,-63
1448,246,4167,-78
1449,189,4167,-78
1450,189,4140,-102
1451,129,4047,-102
1452,126,4047,-117
1453,126,4065,-117
1454,129,4065,-51
1455,129,4140,15
1456,144,4158,15
1457,192,4158,48
1458,192,4155,48
1459,165,4155,30
1460,165,4125,78
1461,165,4104,78
1462,174,4104,105
1463,174,4173,105
1464,249,4173,54
1465,249,4050,-48
1466,315,4008,-48
1467,315,4008,3
1468,261,4083,3
1469,282,4083,18
1470,282,4137,-48
1471,318,4143,-48
1472,318,4143,-48
1473,300,4125,-48
1474,240,4125,-111
1475,240,4116,-87
1476,189,4119,-87
1477,189,4119,-132
1478,189,4167,-132
1479,267,4167,-138
1480,267,4158,-252
1481,225,4158,-252
1482,225,4107,-213
1483,201,4050,-213
1484,153,4050,-183
1485,153,4017,-117
1486,201,4017,-117
1487,201,4122,-96
1488,147,4185,-96
1489,144,4185,-36
1490,144,4224,-87
1491,201,4224,-87
1492,201,4185,-96
1493,258,4185,-96
1494,159,4185,-63
1495,159,4158,-63
1496,210,4158,-78
1497,210,4131,-81
1498,285,4056,-81
1499,267,4056,-123
1500,267,4161,-123
1501,246,4161,-81
1502,246,4125,-102
1503,351,4254,-102
1504,351,4254,-153
1505,471,4218,-153
1506,543,4218,-207
1507,543,4161,-333
1508,621,4098,-333
1509,621,4098,-363
1510,798,4245,-363
1511,1164,4245,-321
1512,1164,4365,-327
1513,1332,4425,-327
1514,1332,4425,-342
1515,1479,4473,-342
1516,2037,4473,-549
1517,2037,4308,-627
1518,1965,4377,-627
1519,1965,4377,-552
1520,1734,4629,-552
1521,1848,4629,-513
1522,1848,4911,-492
1523,2187,4782,-492
1524,2187,4782,-549
1525,1689,4458,-549
1526,1533,4458,-642
1527,1533,4293,-588
1528,1728,4293,-588
1529,1728,4431,-594
1530,2013,4443,-594
1531,2013,4443,-597
1532,2013,4443,-624
1533,2070,4443,-624
1534,2070,4494,-603
1535,2190,4365,-603
1536,2409,4365,-588
1537,2409,4440,-579
1538,2568,4440,-579
1539,2568,4263,-723
1540,2238,4170,-723
1541,1779,4170,-708
1542,1779,4068,-798
1543,1860,4068,-798
1544,1860,3894,-963
1545,2487,3870,-963
1546,3090,3870,-1056
1547,3090,3978,-885
1548,3429,3978,-885
1549,3429,3894,-765
1550,3384,3693,-765
1551,2883,3693,-750
1552,2883,3366,-750
1553,2250,3366,-849
1554,2250,3345,-933
1555,2484,3162,-933
1556,3708,3162,-1041
1557,3708,3093,-1041
1558,4506,3093,-1026
1559,4506,2856,-963
1560,3882,2709,-963
1561,2577,2709,-900
1562,2577,2349,-900
1563,2262,2349,-1011
1564,2262,2022,-1086
1565,2892,1746,-1086
1566,2892,1746,-954
1567,4080,1875,-954
1568,4530,1875,-900
1569,4530,1557,-609
1570,3783,1779,-609
1571,3783,1779,-558
1572,2574,1011,-558
1573,1674,1011,-588
1574,1674,396,-522
1575,1740,120,-522
1576,1740,120,-459
1577,2433,147,-459
1578,2913,147,-132
1579,2913,267,-6
1580,2790,108,-6
1581,2790,108,-33
1582,2085,-264,-33
1583,1635,-264,-156
1584,1635,-660,-312
1585,2034,-660,-312
1586,2034,-837,-528
1587,3204,-624,-528
1588,3981,-624,-528
1589,3981,-237,-567
1590,3927,-237,-567
1591,3927,-117,-567
1592,3384,-429,-567
1593,2997,-429,-663
1594,2997,-750,-729
1595,3129,-750,-729
1596,3129,-732,-795
1597,3687,-585,-795
1598,4350,-585,-729
1599,4350,-237,-729
1600,4614,-237,-684
1601,4614,-48,-672
1602,4011,-363,-672
1603,3603,-363,-777
1604,3603,-603,-777
1605,3795,-603,-870
1606,3795,-582,-903
1607,4236,-183,-903
1608,4746,-183,-798
1609,4746,-72,-798
1610,4782,-72,-804
1611,4782,-72,-717
1612,4323,-315,-717
1613,4323,-315,-732
1614,3726,-549,-732
1615,3504,-549,-717
1616,3504,-621,-678
1617,3627,-474,-678
1618,3627,-474,-732
1619,3864,-402,-732
1620,4173,-402,-708
1621,4173,-333,-642
1622,4167,-378,-642
1623,4167,-378,-684
1624,3927,-393,-684
1625,3636,-393,-672
1626,3636,-561,-753
1627,3636,-561,-753
1628,3636,-591,-729
1629,3774,-369,-729
1630,3861,-369,-603
1631,3861,-330,-618
1632,3954,-330,-618
1633,3954,-330,-612
1634,3798,-396,-612
1635,3540,-396,-597
1636,3540,-507,-633
1637,3420,-507,-633
1638,3420,-579,-564
1639,3450,-447,-564
1640,3378,-447,-549
1641,3378,-348,-393
1642,3306,-348,-393
1643,3306,-390,-267
1644,3306,-447,-267
1645,2985,-447,-126
1646,2985,-324,-135
1647,2037,-324,-135
1648,2037,-351,-216
1649,1329,-213,-216
1650,1593,-213,-432
1651,1593,114,-432
1652,2826,114,-675
1653,2826,465,-699
1654,3867,696,-699
1655,4191,696,-639
1656,4191,1365,-639
1657,3834,1365,-573
1658,3834,1674,-774
1659,3498,1446,-774
1660,3498,1446,-1074
1661,3105,1452,-1074
1662,2979,1452,-1221
1663,2979,1344,-1296
1664,3309,1686,-1296
1665,3309,1686,-1041
1666,3663,2097,-1041
1667,3891,2097,-975
1668,3891,2796,-1155
1669,3636,2409,-1155
1670,3636,2409,-1230
1671,3369,2064,-1230
1672,3306,2064,-1281
1673,3306,2160,-1176
1674,3393,2160,-1176
1675,3393,2169,-903
1676,3375,2823,-903
1677,3189,2823,-909
1678,3189,3393,-984
1679,2664,3393,-984
1680,2664,2850,-1209
1681,2352,2694,-1209
1682,2469,2694,-1149
1683,2469,2943,-1014
1684,2622,2943,-1014
1685,2622,3066,-819
1686,2505,3456,-819
1687,2346,3456,-798
1688,2346,4200,-1101
1689,2265,4200,-1101
1690,2265,4071,-1317
1691,2415,3894,-1317
1692,2724,3894,-1467
1693,2724,3903,-1467
1694,2625,3903,-1305
1695,2625,3981,-1074
1696,2313,4074,-1074
1697,1659,4074,-834
1698,1659,4521,-834
1699,1431,4521,-705
1700,1431,4362,-780
1701,1680,4260,-780
1702,1680,4260,-834
1703,2019,4248,-834
1704,2091,4248,-834
1705,2091,4290,-849
1706,1515,4320,-849
1707,1515,4320,-858
1708,1278,4350,-858
1709,1479,4350,-765
1710,1479,4377,-783
1711,1758,4395,-783
1712,1758,4395,-729
1713,1881,4467,-729
1714,1665,4467,-660
1715,1665,4560,-573
1716,1590,4560,-573
1717,1590,4560,-549
1718,1404,4479,-549
1719,1095,4479,-423
1720,1095,4449,-414
1721,873,4449,-414
1722,873,4353,-468
1723,828,4323,-468
1724,801,4323,-453
1725,801,4278,-414
1726,777,4278,-414
1727,777,4359,-432
1728,687,4284,-432
1729,729,4284,-306
1730,729,4245,-369
1731,687,4245,-369
1732,687,4227,-201
1733,663,4170,-201
1734,603,4170,-216
1735,603,4188,-147
1736,480,4188,-147
1737,480,4233,-162
1738,486,4188,-162
1739,483,4188,-126
1740,483,4083,-126
1741,483,4083,-216
1742,483,4038,-252
1743,489,4062,-252
1744,483,4062,-243
1745,483,4173,-243
1746,429,4173,-261
1747,429,4227,-216
1748,453,4209,-216
1749,453,4209,-207
1750,468,4137,-207
1751,381,4137,-228
1752,381,4134,-243
1753,210,4059,-243
1754,210,4059,-291
1755,105,4035,-291
1756,-15,4035,-312
1757,-15,4092,-291
1758,-9,4152,-291
1759,-9,4152,-177
1760,240,4155,-177
1761,285,4155,-186
1762,285,4143,-252
1763,120,4062,-252
1764,120,4062,-276
1765,69,4008,-276
1766,120,4008,-357
1767,120,4074,-252
1768,162,4074,-252
1769,162,4113,-276
1770,105,4089,-276
1771,36,4089,-291
1772,36,4068,-246
1773,33,4068,-246
1774,33,4098,-261
1775,105,3996,-261
1776,126,3996,-342
1777,126,4029,-378
1778,36,4029,-378
1779,36,4089,-306
1780,78,4137,-306
1781,45,4137,-291
1782,45,4194,-333
1783,93,4194,-333
1784,93,4155,-378
1785,-42,4086,-378
1786,-6,4086,-303
1787,-6,4092,-303
1788,6,4092,-246
1789,6,4095,-303
1790,3,4125,-303
1791,0,4125,-327
1792,0,4095,-327
1793,-15,4095,-327
1794,-15,4038,-453
1795,-15,4053,-453
1796,-15,4053,-387
1797,-18,4017,-387
1798,-51,4017,-321
1799,-51,4107,-312
1800,-24,4065,-312
1801,-24,4065,-354
1802,-12,4101,-354
1803,3,4101,-354
1804,3,4050,-312
1805,-117,4050,-312
1806,-117,4050,-369
1807,-78,4113,-369
1808,-33,4113,-342
1809,-33,4134,-393
1810,-15,4218,-393
1811,-15,4218,-363
1812,-15,4248,-363
1813,120,4248,-207
1814,120,4176,-252
1815,-27,4176,-252
1816,-27,4008,-357
1817,-174,3894,-357
1818,-237,3894,-447
1819,-237,3939,-492
1820,-129,3939,-492
1821,-129,4047,-444
1822,18,4101,-444
1823,87,4101,-369
1824,87,4092,-378
1825,21,4092,-378
1826,21,4173,-306
1827,-84,4116,-306
1828,-129,4116,-348
1829,-129,4086,-348
1830,-57,4086,-354
1831,-57,4044,-462
1832,-48,4059,-462
1833,-27,4059,-354
1834,-27,4068,-354
1835,-93,4068,-357
1836,-93,4101,-417
1837,-84,4125,-417
1838,-84,4125,-342
1839,-60,4143,-342
1840,-9,4143,-363
1841,-9,4140,-342
1842,-33,4074,-342
1843,-33,4074,-453
1844,-48,4104,-453
1845,-42,4104,-414
1846,-42,4092,-372
1847,6,4137,-372
1848,6,4137,-357
1849,-36,4062,-357
1850,54,4062,-414
1851,54,4107,-378
1852,102,4062,-378
1853,102,4062,-393
1854,69,4089,-393
1855,18,4089,-372
1856,18,4191,-363
1857,42,4191,-363
1858,42,4236,-327
1859,171,4209,-327
1860,174,4209,-357
1861,174,4149,-282
1862,231,4149,-282
1863,231,4122,-393
1864,225,4143,-393
1865,159,4143,-363
1866,159,4182,-339
1867,279,4182,-339
1868,279,4224,-378
1869,402,4296,-378
1870,606,4296,-291
1871,606,4290,-291
1872,660,4290,-363
1873,660,4152,-372
1874,498,4263,-372
1875,567,4263,-306
1876,567,4272,-306
1877,693,4272,-393
1878,693,4236,-306
1879,528,4098,-306
1880,585,4098,-297
1881,585,4080,-297
1882,741,4080,-363
1883,741,4167,-273
1884,1005,4356,-273
1885,1332,4356,-228
1886,1332,4494,-228
1887,1212,4494,-291
1888,1212,4395,-303
1889,1074,4272,-303
1890,1074,4272,-333
1891,1206,4158,-333
1892,1506,4158,-408
1893,1506,4251,-534
1894,1308,4191,-534
1895,1308,4191,-378
1896,1284,4218,-378
1897,1338,4218,-384
1898,1338,4149,-477
1899,1395,4092,-477
1900,1395,4092,-603
1901,1377,4083,-603
1902,1491,4083,-663
1903,1491,4098,-729
1904,1929,4098,-729
1905,1929,4035,-690
1906,2502,4299,-690
1907,2712,4299,-774
1908,2712,4662,-765
1909,2676,4662,-765
1910,2676,4521,-840
1911,2709,4155,-840
1912,2514,4155,-918
1913,2514,4005,-984
1914,2109,4005,-984
1915,2109,3945,-1041
1916,1881,4017,-1041
1917,2352,4017,-981
1918,2352,4053,-981
1919,3411,4053,-894
1920,3411,4239,-948
1921,3507,3852,-948
1922,2793,3852,-1044
1923,2793,3543,-1044
1924,2127,3543,-915
1925,2127,3576,-759
1926,2241,3804,-759
1927,3042,3804,-675
1928,3042,3579,-675
1929,3333,3579,-738
1930,3333,3042,-960
1931,3486,2673,-960
1932,3486,2673,-996
1933,3375,2604,-996
1934,3048,2604,-819
1935,3048,2586,-735
1936,3012,2520,-735
1937,3012,2520,-780
1938,3555,2313,-780
1939,3963,2313,-690
1940,3963,1959,-723
1941,3645,1767,-723
1942,3645,1767,-642
1943,2964,1422,-642
1944,2694,1422,-477
1945,2694,1356,-414
1946,2805,1158,-414
1947,2805,1158,-372
1948,3228,1029,-372
1949,3000,1029,-387
1950,3000,750,-387
1951,2688,750,-387
1952,2688,498,-327
1953,2691,462,-327
1954,3204,462,-318
1955,3204,93,-207
1956,3432,93,-207
1957,3432,267,-201
1958,3108,132,-201
1959,2673,132,-123
1960,2673,12,-201
1961,2430,12,-201
1962,2430,-144,-246
1963,2853,-108,-246
1964,3558,-108,-267
1965,3558,-180,-267
1966,3813,-180,-291
1967,3813,-198,-381
1968,3654,-219,-381
1969,3159,-219,-453
1970,3159,-318,-453
1971,3087,-318,-423
1972,3087,-474,-462
1973,3615,-321,-462
1974,4392,-321,-519
1975,4392,-165,-519
1976,4710,-165,-522
1977,4710,-39,-468
1978,4245,-168,-468
1979,4245,-168,-504
1980,3558,-348,-504
1981,3213,-348,-471
1982,3213,-423,-402
1983,3555,-294,-402
1984,3555,-294,-408
1985,4434,165,-408
1986,5013,165,-417
1987,5013,171,-432
1988,4605,-123,-432
1989,4605,-123,-513
1990,3759,-465,-513
1991,3330,-465,-579
1992,3330,-579,-543
1993,3636,-579,-543
1994,3636,-345,-408
1995,4563,18,-408
1996,5016,18,-408
1997,5016,-42,-393
1998,4488,-42,-393
1999,4488,-162,-426
2000,3618,-519,-426
2001,3273,-519,-468
2002,3273,-624,-423
2003,3462,-624,-423
2004,3462,-396,-411
2005,3771,-87,-411
2006,4242,-87,-318
2007,4242,-51,-276
2008,4338,-51,-276
2009,4338,-126,-321
2010,3807,-366,-321
2011,3210,-366,-327
2012,3210,-501,-327
2013,2967,-501,-321
2014,2967,-477,-366
2015,3198,-222,-366
2016,3486,-222,-237
2017,3486,-102,-237
2018,3795,-102,-216
2019,3795,69,-123
2020,4032,-102,-123
2021,4032,-102,-162
2022,3744,-81,-162
2023,3345,-81,-231
2024,3345,42,-147
2025,2970,-48,-147
2026,2970,-48,-102
2027,2796,33,-102
2028,2781,33,30
2029,2781,117,90
2030,2871,492,90
2031,2871,492,144
2032,2712,378,144
2033,2790,378,93
2034,2790,678,84
2035,3066,678,84
2036,3066,843,150
2037,3327,1062,150
2038,3273,1062,78
2039,3273,1128,-21
2040,3087,1128,-21
2041,3087,1410,-6
2042,3024,1608,-6
2043,3261,1608,18
2044,3261,1845,-63
2045,3375,1845,-63
2046,3375,2064,-186
2047,3198,2295,-186
2048,3204,2295,-261
2049,3204,2550,-261
2050,3420,2550,-186
2051,3420,2901,-156
2052,3555,3015,-156
2053,3369,3015,-192
2054,3369,3045,-192
2055,3036,3045,-372
2056,3036,3177,-372
2057,3129,3336,-372
2058,3348,3336,-348
2059,3348,3510,-348
2060,3357,3510,-276
2061,3357,3657,-288
2062,3039,3777,-288
2063,3039,3777,-333
2064,2592,3606,-333
2065,2643,3606,-423
2066,2643,3570,-372
2067,2928,3600,-372
2068,2928,3600,-162
2069,2943,3987,-162
2070,2706,3987,30
2071,2706,4131,165
2072,2406,4410,165
2073,2406,4410,-66
2074,2172,4275,-66
2075,2289,4275,-192
2076,2289,4104,-243
2077,2427,4071,-243
2078,2427,4071,-261
2079,2295,4011,-261
2080,1623,4011,-171
2081,1623,3795,-147
2082,1410,3795,-147
2083,1410,4017,-147
2084,1515,4029,-147
2085,1800,4029,-132
2086,1800,4131,-153
2087,1887,4131,-153
2088,1887,4092,-177
2089,1317,3993,-177
2090,954,3993,-213
2091,954,3921,-216
2092,951,3921,-216
2093,951,4146,-288
2094,1158,4224,-288
2095,1332,4224,-378
2096,1332,4323,-447
2097,957,4323,-447
2098,957,4443,-552
2099,792,4506,-552
2100,693,4506,-549
2101,693,4557,-549
2102,699,4557,-618
2103,699,4551,-543
2104,624,4605,-543
2105,414,4605,-477
2106,414,4719,-477
2107,147,4719,-513
2108,147,4686,-507
2109,129,4533,-507
2110,174,4533,-519
2111,174,4338,-519
2112,129,4338,-483
2113,129,4242,-507
2114,21,4197,-507
2115,21,4197,-489
2116,-18,4212,-489
2117,39,4212,-567
2118,39,4065,-444
2119,87,4203,-444
2120,87,4203,-339
2121,3,4308,-339
2122,-51,4308,-363
2123,-51,4329,-354
2124,-114,4206,-354
2125,-114,4206,-384
2126,-96,4164,-384
2127,-153,4164,-369
2128,-153,4170,-477
2129,-237,4170,-477
2130,-237,4062,-492
2131,-288,3996,-492
2132,-270,3996,-453
2133,-270,3960,-444
2134,-186,3960,-444
2135,-186,4137,-387
2136,-195,4188,-387
2137,-81,4188,-408
2138,-81,4230,-393
2139,-117,4230,-393
2140,-117,4170,-417
2141,-249,4059,-417
2142,-492,4059,-438
2143,-492,3945,-438
2144,-513,3945,-474
2145,-513,3990,-468
2146,-396,4065,-468
2147,-201,4065,-522
2148,-201,4134,-522
2149,-129,4134,-459
2150,-129,4215,-474
2151,-225,4053,-474
2152,-378,4053,-534
2153,-378,4074,-534
2154,-420,4074,-543
2155,-420,4014,-519
2156,-336,4041,-519
2157,-336,4041,-549
2158,-303,4047,-549
2159,-291,4047,-519
2160,-291,4098,-462
2161,-342,4089,-462
2162,-342,4089,-522
2163,-303,4056,-522
2164,-324,4056,-498
2165,-324,4062,-468
2166,-306,4116,-468
2167,-306,4116,-444
2168,-288,4119,-444
2169,-339,4119,-474
2170,-339,4068,-504
2171,-282,4065,-504
2172,-282,4065,-492
2173,-312,4032,-492
2174,-372,4032,-549
2175,-372,4035,-447
2176,-351,4035,-447
2177,-351,4035,-504
2178,-303,4047,-504
2179,-249,4047,-498
2180,-249,4107,-477
2181,-309,4107,-477
2182,-309,4110,-444
2183,-405,4026,-444
2184,-423,4026,-492
2185,-423,4026,-507
2186,-390,4026,-507
2187,-390,4104,-477
2188,-264,4092,-477
2189,-309,4092,-447
2190,-309,4038,-519
2191,-306,4038,-519
2192,-306,4047,-549
2193,-333,4095,-549
2194,-291,4095,-507
2195,-291,4062,-507
2196,-276,4062,-522
2197,-276,4089,-567
2198,-249,4050,-567
2199,-258,4050,-483
2200,-258,4113,-483
2201,-222,4113,-513
2202,-222,4074,-474
2203,-213,4074,-474
2204,-213,4074,-429
2205,-216,4134,-429
2206,-285,4134,-522
2207,-285,4083,-579
2208,-324,4074,-579
2209,-324,4074,-528
2210,-267,4062,-528
2211,-195,4062,-492
2212,-195,4059,-573
2213,-222,4032,-573
2214,-222,4032,-519
2215,-342,4086,-519
2216,-345,4086,-534
2217,-345,4083,-462
2218,-231,4092,-462
2219,-231,4092,-468
2220,-249,4095,-468
2221,-291,4095,-579
2222,-291,4104,-543
2223,-336,4104,-543
2224,-336,4056,-549
2225,-276,4077,-549
2226,-225,4077,-558
2227,-225,4044,-663
2228,-204,4044,-663
2229,-204,3993,-558
2230,-363,4044,-558
2231,-432,4044,-579
2232,-432,4038,-519
2233,-372,4038,-519
2234,-372,4050,-573
2235,-375,4077,-573
2236,-324,4077,-498
2237,-324,4098,-528
2238,-243,4098,-528
2239,-243,4086,-582
2240,-213,4095,-582
2241,-147,4095,-618
2242,-147,4062,-618
2243,-186,4062,-654
2244,-186,4059,-573
2245,-180,4092,-573
2246,-60,4092,-612
2247,-60,4131,-612
2248,-15,4131,-552
2249,-15,4146,-534
2250,-30,4206,-534
2251,51,4206,-483
2252,51,4251,-483
2253,96,4251,-483
2254,96,4203,-519
2255,69,4146,-519
2256,69,4146,-534
2257,-12,4116,-534
2258,-6,4116,-522
2259,-6,4218,-663
2260,174,4215,-663
2261,174,4215,-633
2262,321,4254,-633
2263,402,4254,-669
2264,402,4317,-627
2265,549,4356,-627
2266,549,4356,-618
2267,624,4392,-618
2268,765,4392,-549
2269,765,4575,-639
2270,912,4503,-639
2271,912,4503,-609
2272,993,4389,-609
2273,549,4389,-654
2274,549,4185,-684
2275,402,4185,-684
2276,402,4110,-813
2277,723,4113,-813
2278,1140,4113,-684
2279,1140,4359,-564
2280,1158,4359,-564
2281,1158,4362,-612
2282,882,4425,-612
2283,441,4425,-693
2284,441,4404,-738
2285,519,4404,-738
2286,519,4140,-843
2287,1053,4050,-843
2288,1503,4050,-843
2289,1503,4197,-798
2290,1848,4197,-798
2291,1848,4632,-612
2292,1863,4758,-612
2293,1617,4758,-693
2294,1617,4464,-693
2295,1560,4464,-735
2296,1560,4224,-825
2297,1725,4149,-825
2298,2070,4149,-981
2299,2070,4242,-981
2300,2169,4242,-930
2301,2169,4401,-879
2302,2169,4437,-879
2303,2169,4437,-804
2304,2400,4362,-804
2305,2814,4362,-798
2306,2814,4464,-753
2307,2709,4125,-753
2308,2709,4125,-849
2309,2172,3723,-849
2310,2076,3723,-879
2311,2076,3726,-804
2312,2427,3624,-804
2313,2427,3624,-750
2314,2874,3867,-750
2315,3003,3867,-612
2316,3003,3741,-597
2317,2862,3126,-597
2318,2862,3126,-693
2319,3039,3015,-693
2320,3159,3015,-633
2321,3159,3048,-507
2322,3288,3048,-507
2323,3288,3249,-297
2324,3444,3375,-297
2325,3048,3375,-198
2326,3048,2697,-246
2327,2982,2697,-246
2328,2982,2286,-306
2329,3093,1947,-306
2330,3333,1947,-363
2331,3333,2193,-168
2332,3387,2193,-168
2333,3387,1905,-246
2334,3213,1821,-246
2335,3255,1821,-126
2336,3255,1734,-153
2337,3549,1734,-153
2338,3549,1032,-171
2339,3498,831,-171
2340,3219,831,-117
2341,3219,933,-117
2342,3066,933,-78
2343,3066,888,69
2344,3036,591,69
2345,3096,591,165
2346,3096,276,165
2347,3027,276,213
2348,3027,72,255
2349,3078,42,255
2350,3078,42,285
2351,2697,-390,285
2352,2439,-390,309
2353,2439,-537,231
2354,2532,-243,231
2355,2532,-243,456
2356,2853,-393,456
2357,3351,-393,405
2358,3351,-456,396
2359,3420,-378,396
2360,3420,-378,354
2361,3510,-321,354
2362,3660,-321,339
2363,3660,-372,339
2364,3789,-372,339
2365,3789,-483,330
2366,3846,-456,330
2367,3765,-456,339
2368,3765,-465,309
2369,3744,-465,309
2370,3744,-363,399
2371,3990,-453,399
2372,3999,-453,264
2373,3999,-432,231
2374,3984,-432,231
2375,3984,-567,174
2376,3894,-489,174
2377,3819,-489,225
2378,3819,-369,201
2379,3918,-369,201
2380,3918,-399,186
2381,3912,-492,186
2382,3906,-492,210
2383,3906,-567,210
2384,3774,-567,135
2385,3774,-549,138
2386,3747,-492,138
2387,3729,-492,120
2388,3729,-453,120
2389,3798,-453,105
2390,3798,-273,99
2391,3984,-237,99
2392,3984,-237,120
2393,4188,-249,120
2394,4263,-249,54
2395,4263,-282,33
2396,4224,-198,33
2397,4224,-198,93
2398,4242,-165,93
2399,4233,-165,99
2400,4233,-147,159
2401,4257,-243,159
2402,4257,-243,174
2403,4191,-339,174
2404,4134,-339,174
2405,4134,-345,150
2406,4128,-345,150
2407,4128,-330,123
2408,4119,-174,123
2409,4017,-174,171
2410,4017,-294,135
2411,3984,-294,135
2412,3984,-264,225
2413,3975,-246,225
2414,3912,-246,171
2415,3912,-255,171
2416,3888,-255,171
2417,3888,-273,201
2418,3825,-312,201
2419,3693,-312,165
2420,3693,-246,135
2421,3501,-246,135
2422,3501,-297,195
2423,3360,-363,195
2424,3372,-363,186
2425,3372,-171,186
2426,3261,-171,114
2427,3261,-183,120
2428,3297,-78,120
2429,3249,-78,174
2430,3249,-72,174
2431,3000,-72,201
2432,3000,-45,276
2433,3108,336,276
2434,3228,336,195
2435,3228,195,195
2436,3255,195,105
2437,3255,294,138
2438,3057,306,138
2439,2982,306,90
2440,2982,549,90
2441,3384,549,153
2442,3384,1299,54
2443,3552,942,54
2444,3552,942,3
2445,3549,918,3
2446,3198,918,120
2447,3198,990,120
2448,3261,1704,120
2449,3261,1704,9
2450,3399,1896,9
2451,3540,1896,-78
2452,3540,1881,-6
2453,3567,1989,-6
2454,3567,1989,39
2455,3537,1968,39
2456,3432,1968,114
2457,3432,2226,153
2458,3429,2430,153
2459,3429,2430,189
2460,3258,2661,189
2461,3231,2661,213
2462,3231,2625,123
2463,3102,2625,123
2464,3102,2784,84
2465,3162,2991,84
2466,3489,2991,45
2467,3489,3384,99
2468,3579,3384,99
2469,3579,3393,-78
2470,3393,3240,-78
2471,3102,3240,-162
2472,3102,3294,-123
2473,3000,3294,-123
2474,3000,3150,-117
2475,3060,3600,-117
2476,2967,3600,-6
2477,2967,3765,18
2478,2781,3765,18
2479,2781,3666,-12
2480,2577,3444,-12
2481,2436,3444,-36
2482,2436,3360,-36
2483,2355,3360,30
2484,2355,3753,-12
2485,2331,4050,-12
2486,2316,4050,-66
2487,2316,3939,-66
2488,2331,3939,-48
2489,2331,3825,-21
2490,2352,3846,-21
2491,2229,3846,-18
2492,2229,3810,-18
2493,2043,3810,0
2494,2043,4002,-12
2495,1803,3945,-12
2496,1803,3945,30
2497,1671,3909,30
2498,1650,3909,168
2499,1650,3993,168
2500,1569,3996,168
2501,1569,3996,30
2502,1344,4074,30
2503,1371,4074,54
2504,1371,4110,9
2505,1434,4050,9
2506,1434,4050,-63
2507,1350,3966,-63
2508,1317,3966,-42
2509,1317,4032,18
2510,1248,4032,18
2511,1248,4203,93
2512,1281,4335,93
2513,1215,4335,60
2514,1215,4410,-21
2515,1176,4410,-21
2516,1176,4350,-93
2517,1209,4311,-93
2518,1044,4311,-147
2519,1044,4290,-138
2520,1053,4290,-138
2521,1053,4323,-138
2522,957,4404,-138
2523,903,4404,-93
2524,903,4440,-81
2525,1017,4440,-81
2526,1017,4470,-81
2527,897,4365,-81
2528,723,4365,-198
2529,723,4335,-198
2530,624,4335,-183
2531,624,4305,-228
2532,636,4245,-228
2533,570,4245,-273
2534,570,4215,-273
2535,561,4215,-318
2536,561,4203,-228
2537,489,4293,-228
2538,489,4293,-231
2539,312,4278,-231
2540,276,4278,-201
2541,276,4278,-171
2542,318,4209,-171
2543,318,4209,-231
2544,354,4158,-231
2545,297,4158,-186
2546,297,4137,-231
2547,159,4125,-231
2548,159,4125,-201
2549,-6,4095,-201
2550,-99,4095,-258
2551,-99,4032,-327
2552,33,4107,-327
2553,33,4107,-252
2554,231,4068,-252
2555,171,4068,-273
2556,171,4119,-207
2557,51,4119,-207
2558,51,4047,-207
2559,-126,4044,-207
2560,-129,4044,-273
2561,-129,4044,-186
2562,-18,4044,-186
2563,-18,4077,-147
2564,69,4164,-147
2565,39,4164,-192
2566,39,4098,-171
2567,105,4098,-171
2568,105,4104,-207
2569,27,4005,-207
2570,-15,4005,-252
2571,-15,4023,-192
2572,3,4023,-192
2573,3,4113,-201
2574,183,4215,-201
2575,177,4215,-153
2576,177,4170,-183
2577,84,4170,-183
2578,84,4104,-216
2579,-6,4011,-216
2580,-30,4011,-252
2581,-30,4068,-252
2582,21,4068,-273
2583,21,4110,-231
2584,72,4110,-231
2585,102,4110,-297
2586,102,4047,-297
2587,93,4047,-222
2588,93,4152,-291
2589,33,4161,-291
2590,33,4161,-198
2591,-36,4086,-198
2592,-60,4086,-261
2593,-60,4101,-216
2594,-60,4077,-216
2595,-60,4077,-231
2596,21,4104,-231
2597,129,4104,-261
2598,129,4083,-288
2599,138,4131,-288
2600,138,4131,-303
2601,3,4080,-303
2602,-57,4080,-288
2603,-57,4032,-246
2604,39,4113,-246
2605,39,4113,-243
2606,69,4200,-243
2607,87,4200,-168
2608,87,4140,-231
2609,108,4140,-231
2610,108,4038,-222
2611,162,4062,-222
2612,165,4062,-171
2613,165,4074,-156
2614,153,4074,-156
2615,153,4146,-162
2616,141,4131,-162
2617,303,4131,-171
2618,303,4113,-207
2619,243,4113,-207
2620,243,4134,-177
2621,162,4125,-177
2622,123,4125,-201
2623,123,4161,-216
2624,156,4161,-216
2625,156,4134,-222
2626,201,4125,-222
2627,330,4125,-318
2628,330,4137,-321
2629,441,4137,-321
2630,441,4173,-333
2631,498,4260,-333
2632,579,4260,-333
2633,579,4356,-333
2634,618,4356,-414
2635,618,4233,-558
2636,522,4194,-558
2637,567,4194,-519
2638,567,4257,-519
2639,732,4257,-522
2640,732,4362,-414
2641,984,4494,-414
2642,984,4494,-459
2643,1242,4557,-459
2644,1209,4557,-474
2645,1209,4452,-513
2646,1068,4299,-513
2647,1068,4299,-477
2648,837,4143,-477
2649,825,4143,-462
2650,825,4167,-417
2651,1053,4236,-417
2652,1053,4236,-291
2653,1263,4371,-291
2654,1518,4371,-342
2655,1518,4419,-282
2656,1320,4419,-282
2657,1320,4287,-387
2658,954,4191,-387
2659,864,4191,-216
2660,864,4137,-282
2661,1059,4137,-282
2662,1059,4113,-282
2663,1380,4377,-282
2664,1761,4377,-252
2665,1761,4386,-252
2666,1965,4386,-252
2667,1965,4284,-207
2668,2109,4287,-207
2669,2151,4287,-222
2670,2151,4242,-171
2671,2052,4242,-171
2672,2052,4188,-177
2673,2106,4170,-177
2674,2100,4170,-96
2675,2100,4152,-96
2676,2070,4152,-162
2677,2070,4029,-177
2678,2232,3900,-177
2679,2463,3900,-72
2680,2463,3693,-72
2681,2484,3693,-96
2682,2484,3765,-42
2683,2427,3648,-42
2684,2394,3648,-33
2685,2394,3441,-33
2686,2550,3441,39
2687,2550,3555,-33
2688,2739,3177,-33
2689,2739,3177,18
2690,2739,3123,18
2691,2745,3123,15
2692,2745,3294,30
2693,2940,3045,30
2694,2940,3045,-33
2695,3213,3093,-33
2696,3303,3093,9
2697,3303,2931,33
2698,3354,2754,33
2699,3354,2754,-48
2700,3159,2448,-48
2701,3048,2448,-27
2702,3048,2322,-36
2703,2997,2322,-36
2704,2997,2211,54
2705,3177,1998,54
2706,3513,1998,-12
2707,3513,2193,33
2708,3537,2193,33
2709,3537,1962,69
2710,3327,1773,69
2711,3072,1773,30
2712,3072,1518,-21
2713,3030,1518,-21
2714,3030,1359,18
2715,3336,1437,18
2716,3669,1437,60
2717,3669,1353,153
2718,3885,1353,153
2719,3885,1233,93
2720,3879,1212,93
2721,3471,1212,150
2722,3471,939,150
2723,2976,939,138
2724,2976,519,99
2725,2913,357,99
2726,3183,357,120
2727,3183,570,120
2728,3393,570,174
2729,3393,396,279
2730,3567,399,279
2731,3552,399,300
2732,3552,378,300
2733,3384,378,270
2734,3384,174,324
2735,3177,6,324
2736,3177,6,285
2737,2976,-78,285
2738,3042,-78,249
2739,3042,9,240
2740,3303,30,240
2741,3303,30,351
2742,3660,198,351
2743,3816,198,351
2744,3816,213,285
2745,3849,228,285
2746,3849,228,303
2747,3870,198,303
2748,3831,198,249
2749,3831,171,174
2750,3843,123,174
2751,3843,123,114
2752,3768,135,114
2753,3861,135,93
2754,3861,111,153
2755,3927,111,153
2756,3927,171,78
2757,4032,225,78
2758,4134,225,39
2759,4134,267,105
2760,4125,267,105
2761,4125,135,75
2762,4104,207,75
2763,4035,207,60
2764,4035,204,114
2765,3969,204,114
2766,3969,192,90
2767,3963,225,90
2768,3975,225,108
2769,3975,228,150
2770,4035,228,150
2771,4035,315,189
2772,4134,294,189
2773,4134,294,138
2774,4134,333,138
2775,4122,333,105
2776,4122,444,90
2777,4065,348,90
2778,3996,348,123
2779,3996,390,123
2780,4005,390,150
2781,4005,435,84
2782,3975,390,84
2783,3927,390,114
2784,3927,315,114
2785,3816,315,90
2786,3816,414,123
2787,3831,393,123
2788,3831,393,78
2789,3759,315,78
2790,3774,315,129
2791,3774,411,120
2792,3750,459,120
2793,3750,459,105
2794,3825,537,105
2795,3738,537,123
2796,3738,486,168
2797,3594,444,168
2798,3594,444,165
2799,3642,831,165
2800,3696,831,210
2801,3696,777,150
2802,3759,663,150
2803,3759,663,45
2804,3678,855,45
2805,3588,855,114
2806,3588,942,189
2807,3693,942,189
2808,3693,1032,153
2809,3867,1224,153
2810,3954,1224,93
2811,3954,1179,24
2812,3837,1179,24
2813,3837,1230,144
2814,3852,1386,144
2815,3852,1386,228
2816,3852,1284,159
2817,3867,1284,159
2818,3867,1251,198
2819,3906,1350,198
2820,3714,1350,234
2821,3714,1224,243
2822,3648,1224,243
2823,3648,1464,255
2824,3708,1560,255
2825,3816,1560,225
2826,3816,1521,300
2827,3861,1521,300
2828,3861,1569,303
2829,3765,1659,303
2830,3645,1659,444
2831,3645,1788,444
2832,3504,1788,321
2833,3504,1767,369
2834,3405,1716,369
2835,3345,1716,264
2836,3345,1857,264
2837,3435,1857,315
2838,3435,2004,273
2839,3489,1944,273
2840,3453,1944,285
2841,3453,1956,285
2842,3396,1956,303
2843,3396,2253,258
2844,3315,2124,258
2845,3315,2124,324
2846,3396,2235,324
2847,3399,2235,189
2848,3399,2307,240
2849,3381,2331,240
2850,3381,2331,228
2851,3345,2541,228
2852,3348,2541,285
2853,3348,2622,249
2854,3351,2565,249
2855,3351,2565,255
2856,3303,2427,255
2857,3249,2427,240
2858,3249,2592,255
2859,3153,2919,255
2860,3153,2919,303
2861,3126,2814,303
2862,3045,2814,270
2863,3045,2724,204
2864,2973,2724,204
2865,2973,2715,243
2866,2886,2934,243
2867,2922,2934,270
2868,2922,3096,279
2869,3003,3096,279
2870,3003,3081,279
2871,3006,2967,279
2872,2865,2967,249
2873,2865,2958,273
2874,2766,2958,273
2875,2766,3048,351
2876,2763,3258,351
2877,2802,3258,300
2878,2802,3402,315
2879,2793,3402,315
2880,2793,3333,303
2881,2778,3348,303
2882,2814,3348,258
2883,2814,3324,258
2884,2763,3324,366
2885,2763,3327,351
2886,2640,3375,351
2887,2472,3375,345
2888,2472,3357,345
2889,2343,3357,360
2890,2343,3318,339
2891,2298,3390,339
2892,2292,3390,330
2893,2292,3366,330
2894,2229,3366,309
2895,2229,3480,285
2896,2247,3429,285
2897,2247,3429,264
2898,2052,3411,264
2899,1953,3411,234
2900,1953,3381,243
2901,1983,3459,243
2902,1983,3459,285
2903,1983,3489,285
2904,1929,3489,294
2905,1929,3591,384
2906,1827,3657,384
2907,1827,3657,330
2908,1734,3765,330
2909,1782,3765,234
2910,1782,3864,219
2911,1887,3864,219
2912,1887,3768,183
2913,1902,3744,183
2914,1701,3744,189
2915,1701,3831,225
2916,1389,3831,225
2917,1389,3789,255
2918,1374,3807,255
2919,1449,3807,228
2920,1449,3855,210
2921,1569,3855,210
2922,1569,3957,240
2923,1575,4011,240
2924,1467,4011,168
2925,1467,3993,198
2926,1398,3993,198
2927,1398,3933,108
2928,1314,3903,108
2929,1311,3903,123
2930,1311,4014,123
2931,1266,4014,120
2932,1266,4050,69
2933,1161,4071,69
2934,1008,4071,24
2935,1008,4071,24
2936,1032,4071,-27
2937,1032,3978,-33
2938,1038,3972,-33
2939,981,3972,-42
2940,981,3972,-42
2941,732,3972,153
2942,732,3966,195
2943,639,4101,195
2944,639,4101,135
2945,708,4317,135
2946,948,4317,90
2947,948,4296,9
2948,1044,4200,9
2949,1044,4200,-27
2950,1077,4131,-27
2951,882,4131,39
2952,882,4185,45
2953,591,4149,45
2954,591,4149,45
2955,456,4170,45
2956,576,4170,54
2957,576,4158,33
2958,729,4080,33
2959,729,4080,-21
2960,705,4011,-21
2961,561,4011,48
2962,561,3945,-63
2963,381,3945,-63
2964,381,3957,-63
2965,330,3996,-63
2966,363,3996,-21
2967,363,4020,-81
2968,417,4020,-81
2969,417,3990,-81
2970,417,3942,-81
2971,159,3942,-78
2972,159,3948,-72
2973,90,3948,-72
2974,90,4206,-87
2975,129,4410,-87
2976,264,4410,-171
2977,264,4377,-213
2978,486,4377,-213
2979,486,4272,-273
2980,447,4344,-273
2981,330,4344,-318
2982,330,4305,-321
2983,162,4305,-321
2984,162,4182,-357
2985,57,4164,-357
2986,72,4164,-402
2987,72,4125,-402
2988,141,4125,-372
2989,141,4221,-273
2990,153,4236,-273
2991,174,4236,-186
2992,174,4239,-186
2993,-15,4239,-213
2994,-15,4137,-198
2995,-96,4014,-198
2996,-27,4014,-201
2997,-27,4017,-201
2998,24,4017,-216
2999,24,4047,-171
3000,27,4161,-171
3001,27,4161,-117
3002,27,4233,-117
3003,18,4233,-111
3004,18,4176,-93
3005,69,4155,-93
3006,69,4155,-138
3007,3,4086,-138
3008,-81,4086,-198
3009,-81,4059,-183
3010,-87,4104,-183
3011,-87,4104,-81
3012,-45,4158,-81
3013,-93,4158,-183
3014,-93,4182,-96
3015,-93,4158,-96
3016,-93,4158,-162
3017,-60,4092,-162
3018,-183,4092,-153
3019,-183,4062,-213
3020,-195,4059,-213
3021,-195,4059,-216
3022,-96,4053,-216
3023,-60,4053,-276
3024,-60,4101,-192
3025,-63,4119,-192
3026,-63,4119,-258
3027,-165,4095,-258
3028,-183,4095,-216
3029,-183,4131,-222
3030,-57,4131,-222
3031,-57,4074,-243
3032,-63,4077,-243
3033,6,4077,-252
3034,6,4110,-246
3035,-30,4110,-246
3036,-30,4116,-288
3037,-129,4101,-288
3038,-18,4101,-261
3039,-18,4134,-252
3040,24,4134,-252
3041,24,4185,-213
3042,-18,4101,-213
3043,-150,4101,-192
3044,-150,4068,-276
3045,-156,4068,-276
3046,-156,4125,-297
3047,-48,4104,-297
3048,84,4104,-306
3049,84,4095,-306
3050,192,4095,-303
3051,192,4155,-303
3052,69,4104,-303
3053,-84,4104,-312
3054,-84,4128,-312
3055,-129,4128,-207
3056,-129,4038,-183
3057,-78,4062,-183
3058,-78,4062,-207
3059,-30,4140,-207
3060,-93,4140,-228
3061,-93,4086,-252
3062,-66,4053,-252
3063,-66,4053,-258
3064,-36,4077,-258
3065,-24,4077,-312
3066,-24,4089,-288
3067,-84,4077,-288
3068,-84,4077,-276
3069,-111,4053,-276
3070,-114,4053,-306
3071,-114,4083,-297
3072,-24,4119,-297
3073,-24,4119,-333
3074,-12,4125,-333
3075,-69,4125,-267
3076,-69,4086,-276
3077,-66,4059,-276
3078,-66,4059,-267
3079,-45,4044,-267
3080,-84,4044,-318
3081,-84,4080,-297
3082,-57,4080,-297
3083,-57,4086,-291
3084,15,4125,-291
3085,54,4125,-246
3086,54,4107,-321
3087,-9,4107,-321
3088,-9,4077,-306
3089,-48,4128,-306
3090,-66,4128,-327
3091,-66,4098,-303
3092,18,4098,-303
3093,18,4107,-261
3094,-12,4098,-261
3095,21,4098,-258
3096,21,4137,-273
3097,-42,4137,-273
3098,-42,4107,-273
3099,-87,4107,-273
3100,-69,4107,-237
3101,-69,4113,-237
3102,54,4113,-297
3103,54,4080,-348
3104,39,4092,-348
3105,21,4092,-297
3106,21,4095,-297
3107,-18,4095,-276
3108,-18,4110,-369
3109,-15,4077,-369
3110,-15,4077,-282
3111,24,4098,-282
3112,87,4098,-339
3113,87,4122,-288
3114,90,4119,-288
3115,90,4119,-333
3116,72,4095,-333
3117,105,4095,-399
3118,105,4098,-327
3119,24,4053,-327
3120,24,4053,-321
3121,9,4092,-321
3122,159,4092,-483
3123,159,4227,-462
3124,312,4203,-462
3125,312,4203,-492
3126,258,4161,-492
3127,246,4161,-477
3128,246,4203,-462
3129,276,4203,-462
3130,276,4182,-453
3131,363,4227,-453
3132,492,4227,-498
3133,492,4242,-564
3134,561,4242,-564
3135,561,4203,-633
3136,519,4182,-633
3137,423,4182,-579
3138,423,4101,-579
3139,402,4101,-579
3140,402,4074,-567
3141,453,4188,-567
3142,594,4188,-579
3143,594,4173,-579
3144,588,4173,-579
3145,588,4155,-618
3146,549,4107,-618
3147,498,4107,-594
3148,498,4158,-594
3149,576,4158,-543
3150,576,4218,-534
3151,675,4197,-534
3152,831,4197,-564
3153,831,4203,-564
3154,912,4203,-612
3155,912,4206,-552
3156,1020,4314,-552
3157,1020,4314,-633
3158,1050,4380,-633
3159,759,4380,-642
3160,759,4125,-660
3161,591,3969,-660
3162,591,3969,-678
3163,747,4035,-678
3164,1008,4035,-654
3165,1008,4188,-627
3166,1368,4290,-627
3167,1368,4290,-654
3168,1482,4218,-654
3169,1386,4218,-642
3170,1386,4197,-642
3171,1383,4113,-642
3172,1383,4113,-705
3173,1515,4104,-705
3174,1560,4104,-765
3175,1560,4014,-675
3176,1482,3951,-675
3177,1482,3951,-690
3178,1317,3828,-690
3179,1437,3828,-675
3180,1437,3780,-627
3181,1695,3780,-627
3182,1695,3804,-639
3183,1833,3780,-639
3184,1932,3780,-609
3185,1932,3804,-648
3186,1836,3804,-648
3187,1836,3684,-633
3188,1836,3678,-633
3189,2022,3678,-663
3190,2022,3663,-690
3191,2169,3663,-690
3192,2169,3639,-684
3193,2295,3663,-684
3194,2496,3663,-693
3195,2496,3654,-693
3196,2583,3654,-654
3197,2583,3597,-627
3198,2595,3489,-627
3199,2589,3489,-663
3200,2589,3375,-663
3201,2586,3375,-714
3202,2586,3339,-678
3203,2565,3372,-678
3204,2670,3372,-678
3205,2670,3240,-678
3206,2817,3240,-642
3207,2817,3123,-534
3208,2913,2982,-534
3209,2913,2982,-597
3210,2898,3060,-597
3211,2805,3060,-564
3212,2805,2958,-639
3213,2775,2823,-639
3214,2775,2823,-603
3215,2937,2715,-603
3216,3072,2715,-612
3217,3072,2742,-597
3218,3309,2640,-597
3219,3309,2640,-534
3220,3417,2655,-534
3221,3369,2655,-537
3222,3369,2550,-603
3223,3282,2412,-603
3224,3282,2412,-582
3225,3348,2313,-582
3226,3426,2313,-567
3227,3426,2268,-564
3228,3477,2400,-564
3229,3477,2400,-498
3230,3465,2112,-498
3231,3558,2112,-498
3232,3558,2001,-447
3233,3396,2001,-447
3234,3396,1674,-408
3235,3231,1689,-408
3236,3348,1689,-378
3237,3348,1710,-423
3238,3486,1710,-423
3239,3486,1668,-387
3240,3621,1707,-387
3241,3738,1707,-306
3242,3738,1572,-318
3243,3744,1572,-318
3244,3744,1485,-306
3245,3738,1281,-306
3246,3813,1281,-288
3247,3813,1179,-288
3248,3807,1179,-222
3249,3807,1191,-228
3250,3675,1176,-228
3251,3711,1176,-213
3252,3711,1047,-213
3253,3816,1047,-153
3254,3816,957,-153
3255,3897,756,-153
3256,3804,756,-93
3257,3804,807,-93
3258,3702,807,-93
3259,3702,696,-63
3260,3684,615,-63
3261,3684,615,-63
3262,3753,534,-63
3263,3711,534,15
3264,3711,576,60
3265,3639,414,60
3266,3639,414,78
3267,3648,327,78
3268,3612,327,3
3269,3612,198,93
3270,3630,189,93
3271,3630,189,-12
3272,3582,138,-12
3273,3582,138,-18
3274,3582,216,0
3275,3630,171,0
3276,3630,171,15
3277,3726,75,15
3278,3723,75,-12
3279,3723,75,24
3280,3696,75,24
3281,3696,-51,33
3282,3663,-48,33
3283,3588,-48,9
3284,3588,-51,-30
3285,3570,-51,-30
3286,3570,-111,0
3287,3624,-48,0
3288,3675,-48,39
3289,3675,-12,-36
3290,3714,-12,-36
3291,3714,-69,15
3292,3636,-96,15
3293,3606,-96,-45
3294,3606,21,-45
3295,3570,21,0
3296,3570,-21,-36
3297,3726,123,-36
3298,3891,123,-27
3299,3891,225,-27
3300,3966,225,-42
3301,3966,123,-153
3302,3900,129,-153
3303,3843,129,-78
3304,3843,300,-78
3305,3897,300,-42
3306,3897,258,-141
3307,3981,378,-141
3308,3981,378,-93
3309,3951,357,-93
3310,3852,357,-102
3311,3852,315,-81
3312,3825,459,-81
3313,3825,459,-42
3314,3987,669,-42
3315,4167,669,-66
3316,4167,573,-33
3317,4104,423,-33
3318,4104,423,-63
3319,3927,639,-63
3320,3885,639,-72
3321,3885,756,-117
3322,4074,696,-117
3323,4074,696,-87
3324,4122,651,-87
3325,3960,651,-126
3326,3960,702,-57
3327,3849,702,-57
3328,3849,930,-21
3329,3930,969,-21
3330,4083,969,-132
3331,4083,945,-162
3332,3948,945,-162
3333,3948,765,-123
3334,3663,729,-123
3335,3627,729,-66
3336,3627,1254,-63
3337,3753,1254,-63
3338,3753,1083,-108
3339,3858,1071,-108
3340,3660,1071,-6
3341,3660,1149,-87
3342,3369,1149,-87
3343,3369,1182,0
3344,3411,1458,0
3345,3507,1458,-63
3346,3507,1446,-63
3347,3642,1446,-87
3348,3642,1503,-162
3349,3615,1740,-162
3350,3633,1740,-126
3351,3633,1656,-126
3352,3654,1656,-243
3353,3654,1728,-162
3354,3663,1830,-162
3355,3573,1830,-231
3356,3573,1695,-231
3357,3531,1695,-198
3358,3531,1929,-216
3359,3468,1857,-216
3360,3468,1857,-207
3361,3426,1920,-207
3362,3318,1920,-153
3363,3318,1926,-72
3364,3345,2133,-72
3365,3345,2133,-87
3366,3366,2115,-87
3367,3363,2115,-72
3368,3363,2193,-48
3369,3282,2154,-48
3370,3282,2154,-27
3371,3174,2331,-27
3372,3189,2331,90
3373,3189,2565,78
3374,3105,2562,78
3375,3105,2562,78
3376,3075,2475,78
3377,3024,2475,63
3378,3024,2466,33
3379,2901,2697,33
3380,2901,2697,24
3381,2811,3030,24
3382,2913,3030,-21
3383,2913,2967,30
3384,2847,2967,30
3385,2847,2889,33
3386,2724,3036,33
3387,2688,3036,30
3388,2688,3357,39
3389,2727,3357,39
3390,2727,3252,-18
3391,2664,3270,-18
3392,2388,3270,3
3393,2388,3471,33
3394,2364,3471,33
3395,2364,3609,33
3396,2526,3642,33
3397,2397,3642,18
3398,2397,3579,18
3399,2226,3579,-78
3400,2226,3615,-63
3401,2142,3765,-63
3402,2178,3765,-48
3403,2178,3819,-48
3404,2208,3819,-21
3405,2208,3888,-81
3406,2226,3876,-81
3407,2226,3876,-51
3408,2088,3906,-51
3409,1845,3906,-66
3410,1845,3846,-111
3411,1911,3921,-111
3412,1911,3921,-147
3413,2082,4095,-147
3414,2268,4095,-138
3415,2268,4269,-162
3416,2238,4248,-162
3417,2238,4248,-213
3418,2058,4035,-213
3419,1875,4035,-261
3420,1875,3930,-243
3421,1704,3855,-243
3422,1704,3855,-267
3423,1572,3804,-267
3424,1488,3804,-252
3425,1488,3783,-126
3426,1299,3783,-126
3427,1299,3882,-108
3428,1242,3927,-108
3429,1179,3927,-168
3430,1179,4032,-168
3431,1182,4032,-168
3432,1182,4035,-216
3433,1131,3978,-216
3434,1017,3978,-231
3435,1017,3990,-192
3436,936,3990,-192
3437,936,4011,-171
3438,921,4143,-171
3439,801,4143,-171
3440,801,4158,-171
3441,747,4158,-198
3442,747,4155,-171
3443,672,4098,-171
3444,618,4098,-228
3445,618,4065,-228
3446,528,4065,-246
3447,528,4011,-258
3448,588,4053,-258
3449,516,4053,-237
3450,516,4035,-237
3451,480,4035,-231
3452,480,4167,-186
3453,471,4197,-186
3454,471,4197,-216
3455,459,4221,-216
3456,519,4221,-192
3457,519,4113,-273
3458,408,4113,-273
3459,408,4113,-318
3460,246,4161,-318
3461,210,4161,-276
3462,210,4137,-282
3463,267,4227,-282
3464,267,4227,-171
3465,336,4275,-171
3466,267,4275,-231
3467,267,4335,-282
3468,312,4323,-282
3469,312,4323,-288
3470,369,4356,-288
3471,459,4356,-201
3472,459,4386,-348
3473,486,4386,-348
3474,486,4365,-288
3475,276,4302,-288
3476,159,4302,-318
3477,159,4236,-354
3478,147,4236,-354
3479,147,4155,-384
3480,216,4194,-384
3481,258,4194,-399
3482,258,4191,-273
3483,321,4191,-273
3484,321,4227,-276
3485,228,4194,-276
3486,45,4194,-273
3487,45,4170,-246
3488,9,4170,-246
3489,9,4176,-303
3490,45,4074,-303
3491,96,4074,-333
3492,96,4092,-333
3493,33,4092,-297
3494,33,4068,-306
3495,-45,4080,-306
3496,-51,4080,-276
3497,-51,4146,-276
3498,-84,4146,-306
3499,-84,4053,-261
3500,-63,4095,-261
3501,-63,4095,-318
3502,-102,4098,-318
3503,-105,4098,-291
3504,-105,4095,-288
3505,-111,4044,-288
3506,-111,4044,-276
3507,-120,4056,-276
3508,-138,4056,-363
3509,-138,4047,-252
3510,-129,4086,-252
3511,-129,4086,-288
3512,-84,4119,-288
3513,-45,4119,-288
3514,-45,4098,-282
3515,-36,4056,-282
3516,-36,4056,-327
3517,-132,3999,-327
3518,-132,3999,-318
3519,-132,4050,-297
3520,0,4050,-297
3521,0,4161,-267
3522,39,4113,-267
3523,-165,4113,-147
3524,-165,4098,-267
3525,-174,4098,-267
3526,-174,4062,-282
3527,60,4062,-282
3528,123,4062,-276
3529,123,4134,-291
3530,60,4134,-291
3531,60,4098,-258
3532,78,4032,-258
3533,0,4032,-273
3534,0,4155,-348
3535,39,4155,-348
3536,39,4140,-276
3537,144,4131,-276
3538,153,4131,-303
3539,153,4107,-303
3540,174,4107,-261
3541,174,4173,-321
3542,231,4155,-321
3543,93,4155,-282
3544,93,4134,-282
3545,24,4134,-282
3546,24,4092,-369
3547,69,4089,-369
3548,213,4089,-303
3549,213,4221,-303
3550,336,4221,-348
3551,336,4284,-327
3552,414,4272,-327
3553,414,4272,-399
3554,372,4236,-399
3555,156,4236,-453
3556,156,4176,-468
3557,63,4095,-468
3558,63,4095,-438
3559,27,4014,-438
3560,-12,4014,-414
3561,-12,3999,-408
3562,-36,4008,-408
3563,-36,4008,-354
3564,27,4008,-354
3565,96,4008,-321
3566,96,4011,-276
3567,189,4131,-276
3568,189,4131,-198
3569,213,4254,-198
3570,321,4254,-252
3571,321,4263,-261
3572,468,4263,-261
3573,468,4236,-246
3574,540,4167,-246
3575,537,4167,-246
3576,537,4206,-207
3577,672,4206,-207
3578,672,4257,-138
3579,885,4392,-138
3580,1062,4392,-162
3581,1062,4437,-183
3582,492,4437,-183
3583,492,4167,-213
3584,39,3972,-213
3585,123,3972,-228
3586,123,3999,-213
3587,504,3999,-213
3588,504,4146,-216
3589,906,4272,-216
3590,1191,4272,-183
3591,1191,4413,-138
3592,1290,4413,-138
3593,1290,4341,-201
3594,1263,4338,-201
3595,1275,4338,-153
3596,1275,4311,-153
3597,1230,4311,-111
3598,1230,4257,-141
3599,1182,4188,-141
3600,1206,4188,-138
3601,1206,4149,-138
3602,1416,4149,-162
3603,1416,4206,-138
3604,1662,4347,-138
3605,1662,4347,-132
3606,1893,4491,-132
3607,2022,4491,-87
3608,2022,4437,-111
3609,2130,4314,-111
3610,2130,4314,-87
3611,2049,4311,-87
3612,1902,4311,-66
3613,1902,4176,-48
3614,1830,4110,-48
3615,1830,4110,-66
3616,1869,4008,-66
3617,2070,4008,45
3618,2070,4005,75
3619,2139,4029,75
3620,2139,4029,93
3621,2253,3957,93
3622,2229,3957,33
3623,2229,3804,45
3624,2286,3804,45
3625,2286,3645,15
3626,2418,3609,15
3627,2562,3609,99
3628,2562,3555,168
3629,2679,3555,168
3630,2679,3471,249
3631,2682,3381,249
3632,2499,3381,255
3633,2499,3174,195
3634,2196,3174,195
3635,2196,2976,165
3636,2193,2847,165
3637,2430,2847,135
3638,2430,2766,210
3639,2832,2766,210
3640,2832,2748,198
3641,3336,2949,198
3642,3618,2949,195
3643,3618,2922,195
3644,3606,2922,294
3645,3606,2715,165
3646,3366,2502,165
3647,3120,2502,135
3648,3120,2235,135
3649,3180,2235,60
3650,3180,2316,150
3651,3396,2133,150
3652,3531,2133,219
3653,3531,2127,219
3654,3624,2127,273
3655,3624,1914,336
3656,3432,1698,336
3657,3432,1698,414
3658,3243,1668,414
3659,3045,1668,441
3660,3045,1266,444
3661,2955,1314,444
3662,2955,1314,435
3663,3162,1311,435
3664,3366,1311,636
3665,3366,1134,711
3666,3471,957,711
3667,3471,957,747
3668,3579,1047,747
3669,3606,1047,846
3670,3606,1050,780
3671,3456,645,780
3672,3456,645,831
3673,3294,528,831
3674,3066,528,780
3675,3066,309,795
3676,3045,339,795
3677,3045,339,801
3678,3159,342,801
3679,3312,342,906
3680,3312,315,927
3681,3360,315,927
3682,3360,321,915
3683,3381,381,915
3684,3420,381,897
3685,3420,309,900
3686,3507,309,900
3687,3507,183,852
3688,3501,207,852
3689,3468,207,822
3690,3468,189,870
3691,3402,189,870
3692,3402,96,822
3693,3447,237,822
3694,3612,237,831
3695,3612,261,777
3696,3795,261,777
3697,3795,342,771
3698,3927,363,771
3699,4044,363,735
3700,4044,369,735
3701,3984,369,756
3702,3984,417,762
3703,3963,384,762
3704,3906,384,735
3705,3906,297,735
3706,3861,297,645
3707,3861,297,696
3708,3945,384,696
3709,3915,384,717
3710,3915,372,717
3711,3972,372,705
3712,3972,345,717
3713,4050,426,717
3714,4050,426,720
3715,4089,462,720
3716,3948,462,705
3717,3948,441,762
3718,3963,447,762
3719,3963,447,750
3720,3930,417,750
3721,3936,417,675
3722,3936,504,702
3723,3951,531,702
3724,3951,531,750
3725,4002,492,750
3726,3972,492,690
3727,3972,564,741
3728,3957,537,741
3729,3957,537,711
3730,4089,621,711
3731,4053,621,651
3732,4053,579,636
3733,3963,579,636
3734,3963,492,594
3735,3846,531,594
3736,3816,531,666
3737,3816,561,621
3738,3864,561,621
3739,3864,546,624
3740,3867,561,624
3741,3831,561,630
3742,3831,504,594
3743,3693,504,594
3744,3693,567,630
3745,3525,543,630
3746,3405,543,657
3747,3405,501,657
3748,3180,501,600
3749,3180,474,651
3750,3165,585,651
3751,3234,585,606
3752,3234,699,606
3753,3153,699,609
3754,3153,705,579
3755,2997,708,579
3756,2712,708,615
3757,2712,834,615
3758,2793,834,624
3759,2793,1251,606
3760,3078,1380,606
3761,3315,1380,621
3762,3315,1608,621
3763,3294,1608,531
3764,3294,1785,576
3765,3402,2046,576
3766,3402,2046,555
3767,3558,2103,555
3768,3594,2103,546
3769,3594,1995,516
3770,3441,2004,516
3771,3441,2004,459
3772,3396,2202,459
3773,3348,2202,456
3774,3348,2178,516
3775,3348,2340,516
3776,3348,2340,531
3777,3462,2730,531
3778,3492,2730,576
3779,3492,2769,564
3780,3435,2715,564
3781,3435,2715,615
3782,3303,2721,615
3783,3093,2721,576
3784,3093,2556,591
3785,2967,2556,591
3786,2967,2697,624
3787,2880,2856,624
3788,2799,2856,642
3789,2799,3156,642
3790,2952,3156,642
3791,2952,3333,564
3792,3111,3423,564
3793,3126,3423,510
3794,3126,3360,525
3795,2988,3360,525
3796,2988,3342,429
3797,2835,3183,429
3798,2619,3183,510
3799,2619,3081,426
3800,2469,3081,426
3801,2469,3282,435
3802,2451,3603,435
3803,2403,3603,414
3804,2403,3480,414
3805,2364,3480,345
3806,2364,3399,255
3807,2283,3258,255
3808,2094,3258,285
3809,2094,3408,285
3810,1992,3408,330
3811,1992,3762,354
3812,1908,3912,354
3813,1908,3912,411
3814,1905,3882,411
3815,1989,3882,471
3816,1989,3861,390
3817,1947,3729,390
3818,1947,3729,303
3819,1872,3693,303
3820,1605,3693,366
3821,1605,3594,411
3822,1449,3735,411
3823,1449,3735,429
3824,1452,3882,429
3825,1611,3882,471
3826,1611,3909,510
3827,1650,3888,510
3828,1650,3888,525
3829,1581,3897,525
3830,1314,3897,546
3831,1314,4038,471
3832,1098,4038,471
3833,1098,4290,426
3834,1173,4350,426
3835,1236,4350,354
3836,1236,4371,324
3837,1356,4371,324
3838,1356,4317,165
3839,1206,4191,165
3840,969,4191,144
3841,969,4125,0
3842,903,4125,0
3843,903,4119,-51
3844,1044,4200,-51
3845,1224,4200,-48
3846,1224,4266,-48
3847,1248,4266,-51
3848,1248,4209,0
3849,978,4263,0
3850,609,4263,-42
3851,609,4308,-42
3852,549,4308,-132
3853,549,4377,-138
3854,579,4323,-138
3855,579,4323,-246
3856,555,4266,-246
3857,594,4266,-306
3858,594,4209,-357
3859,717,4269,-357
3860,717,4269,-276
3861,597,4302,-276
3862,549,4302,-261
3863,549,4293,-261
3864,549,4251,-261
3865,549,4251,-291
3866,504,4158,-291
3867,414,4158,-342
3868,414,4038,-243
3869,390,4089,-243
3870,390,4089,-213
3871,336,4164,-213
3872,321,4164,-153
3873,321,4275,-93
3874,207,4191,-93
3875,207,4191,-156
3876,183,4170,-156
3877,132,4170,-147
3878,132,4137,-216
3879,159,4137,-216
3880,159,4089,-213
3881,249,4113,-213
3882,240,4113,-147
3883,240,4134,-162
3884,126,4134,-162
3885,126,4200,-183
3886,120,4125,-183
3887,51,4125,-168
3888,51,4119,-111
3889,60,4119,-111
3890,60,4143,-147
3891,96,4170,-147
3892,21,4170,-207
3893,21,4110,-228
3894,-9,4110,-228
3895,-9,4038,-267
3896,6,4047,-267
3897,54,4047,-213
3898,54,4110,-267
3899,78,4110,-267
3900,78,4161,-243
3901,72,4068,-243
3902,21,4068,-258
3903,21,4089,-258
3904,-12,4089,-168
3905,-12,4101,-141
3906,24,4122,-141
3907,75,4122,-177
3908,75,4086,-177
3909,105,4086,-273
3910,105,4107,-312
3911,78,4080,-312
3912,63,4080,-282
3913,63,4062,-282
3914,123,4062,-222
3915,123,4164,-192
3916,165,4173,-192
3917,165,4173,-183
3918,174,4164,-183
3919,234,4164,-327
3920,234,4149,-288
3921,285,4173,-288
3922,285,4173,-291
3923,327,4167,-291
3924,339,4167,-258
3925,339,4140,-252
3926,276,4104,-252
3927,276,4104,-246
3928,270,4092,-246
3929,234,4092,-138
3930,234,4059,-183
3931,270,4119,-183
3932,270,4119,-156
3933,279,4242,-156
3934,360,4242,-183
3935,360,4296,-252
3936,576,4296,-252
3937,576,4347,-297
3938,681,4314,-297
3939,732,4314,-408
3940,732,4260,-438
3941,678,4260,-438
3942,678,4287,-402
3943,648,4356,-402
3944,678,4356,-462
3945,678,4308,-453
3946,780,4308,-453
3947,780,4308,-474
3948,813,4338,-474
3949,888,4338,-498
3950,888,4353,-519
3951,1056,4353,-519
3952,1056,4398,-519
3953,1242,4293,-519
3954,1101,4293,-459
3955,1101,4272,-459
3956,897,4272,-474
3957,897,4239,-552
3958,915,4227,-552
3959,1143,4227,-603
3960,1143,4305,-603
3961,1344,4305,-408
3962,1344,4305,-447
3963,1524,4299,-447
3964,1524,4299,-384
3965,1623,4353,-384
3966,1716,4353,-414
3967,1716,4290,-339
3968,1692,4146,-339
3969,1692,4146,-369
3970,1653,4206,-369
3971,1710,4206,-357
3972,1710,4062,-342
3973,1905,4059,-342
3974,1905,4059,-252
3975,2085,4044,-252
3976,2238,4044,-138
3977,2238,3966,-168
3978,2094,3852,-168
3979,2094,3852,-12
3980,1950,3657,-12
3981,2022,3657,-33
3982,2022,3594,-48
3983,2181,3594,-48
3984,2181,3792,45
3985,2283,3651,45
3986,2355,3651,30
3987,2355,3408,108
3988,2490,3408,108
3989,2490,3276,54
3990,2640,3189,54
3991,2832,3189,114
3992,2832,3306,165
3993,2886,3306,165
3994,2886,3180,93
3995,3072,3345,93
3996,3144,3345,174
3997,3144,3240,159
3998,3234,3240,159
3999,3234,3012,159
4000,3147,3003,159
4001,3027,3003,168
4002,3027,2763,219
4003,2976,2763,219
4004,2976,2577,213
4005,3033,2610,213
4006,3279,2610,300
4007,3279,2535,300
4008,3453,2535,243
4009,3453,2301,210
4010,3396,2175,210
4011,3171,2175,249
4012,3171,1941,249
4013,3069,1941,249
4014,3069,1791,285
4015,3138,1785,285
4016,3285,1785,324
4017,3285,1548,324
4018,3360,1548,324
4019,3360,1479,321
4020,3348,1290,321
4021,3348,1290,300
4022,3327,1446,300
4023,3162,1446,360
4024,3162,1134,456
4025,3162,1134,456
4026,3162,1134,495
4027,3567,1317,495
4028,3639,1317,534
4029,3639,1146,564
4030,3696,1047,564
4031,3696,1047,534
4032,3693,987,534
4033,3465,987,591
4034,3465,822,615
4035,3180,822,615
4036,3180,495,600
4037,2940,315,600
4038,2919,315,591
4039,2919,378,630
4040,3135,378,630
4041,3135,420,624
4042,3381,465,624
4043,3450,465,696
4044,3450,522,750
4045,3369,522,750
4046,3369,483,681
4047,3327,444,681
4048,3213,444,651
4049,3213,246,495
4050,3423,246,495
4051,3423,339,504
4052,3549,498,504
4053,3777,498,519
4054,3777,600,519
4055,3948,600,459
4056,3948,636,534
4057,4086,648,534
4058,4086,648,474
4059,4086,618,474
4060,4032,618,489
4061,4032,654,396
4062,4005,618,396
4063,4038,618,450
4064,4038,570,450
4065,4005,570,396
4066,4005,675,486
4067,4020,639,486
4068,4020,639,450
4069,4017,594,450
4070,3930,594,420
4071,3930,564,504
4072,3933,612,504
4073,3933,612,474
4074,3870,654,474
4075,3831,654,510
4076,3831,684,555
4077,3843,726,555
4078,3843,726,531
4079,3861,771,531
4080,3819,771,585
4081,3819,741,540
4082,3624,618,540
4083,3624,618,531
4084,3351,483,531
4085,3405,483,450
4086,3405,741,459
4087,3441,753,459
4088,3441,753,501
4089,3504,837,501
4090,3360,837,399
4091,3360,810,420
4092,3222,810,420
4093,3222,798,474
4094,3279,999,474
4095,3372,999,420
4096,3372,1077,414
4097,3393,1077,414
4098,3393,1194,414
4099,3366,1218,414
4100,3282,1218,429
4101,3282,1335,414
4102,3303,1335,414
4103,3303,1446,369
4104,3348,1479,369
4105,3381,1479,411
4106,3381,1716,411
4107,3411,1716,411
4108,3411,1707,360
4109,3354,1734,360
4110,3312,1734,324
4111,3312,1836,381
4112,3234,1836,381
4113,3234,1899,486
4114,3123,2094,486
4115,3093,2094,399
4116,3093,2220,399
4117,3039,2220,375
4118,3039,2370,294
4119,3111,2664,294
4120,3207,2664,285
4121,3207,2820,285
4122,3261,2820,243
4123,3261,2859,183
4124,3177,2772,183
4125,2964,2772,165
4126,2964,2892,165
4127,2877,2892,150
4128,2877,3036,168
4129,2970,3300,168
4130,2970,3300,120
4131,3027,3309,120
4132,2862,3309,189
4133,2862,3204,114
4134,2637,3123,114
4135,2637,3123,174
4136,2520,3321,174
4137,2631,3321,228
4138,2631,3753,210
4139,2811,3849,210
4140,2811,3849,303
4141,2748,3813,303
4142,2640,3813,240
4143,2640,3615,273
4144,2499,3615,273
4145,2499,3615,285
4146,2301,3474,285
4147,2214,3474,285
4148,2214,3825,345
4149,1971,3825,345
4150,1971,3879,324
4151,1899,3759,324
4152,1890,3759,351
4153,1890,3678,321
4154,1953,3678,321
4155,1953,3801,339
4156,1863,3828,339
4157,1731,3828,324
4158,1731,3858,303
4159,1524,3858,303
4160,1524,3837,270
4161,1407,3837,270
4162,1335,3837,183
4163,1335,3777,198
4164,1140,3777,198
4165,1140,3870,135
4166,1020,3945,135
4167,969,3945,30
4168,969,3930,30
4169,999,3930,90
4170,999,3981,75
4171,1053,4152,75
4172,1146,4152,219
4173,1146,4287,219
4174,1035,4287,138
4175,1035,4329,90
4176,960,4344,90
4177,960,4344,3
4178,1005,4329,3
4179,924,4329,90
4180,924,4338,105
4181,846,4389,105
4182,846,4389,63
4183,837,4452,63
4184,780,4452,-21
4185,780,4407,-81
4186,639,4386,-81
4187,639,4386,-57
4188,570,4410,-57
4189,657,4410,-36
4190,657,4428,-51
4191,657,4425,-51
4192,657,4425,-21
4193,657,4431,-21
4194,624,4431,-78
4195,624,4419,0
4196,615,4380,0
4197,615,4380,93
4198,483,4344,93
4199,318,4344,90
4200,318,4296,123
4201,198,4296,123
4202,198,4296,144
4203,237,4206,144
4204,219,4206,213
4205,219,4221,135
4206,180,4221,135
4207,180,4200,159
4208,159,4185,159
4209,111,4185,174
4210,111,4137,120
4211,72,4137,120
4212,72,4125,69
4213,36,4152,69
4214,36,4152,123
4215,36,4071,78
4216,-72,4071,78
4217,-72,4125,105
4218,-42,4155,105
4219,36,4155,60
4220,36,4197,60
4221,54,4197,63
4222,54,4107,-12
4223,-66,4140,-12
4224,-180,4140,-72
4225,-180,4065,-72
4226,-216,4065,-78
4227,-216,4080,-117
4228,-129,4044,-117
4229,-42,4044,-117
4230,-42,4086,-117
4231,-138,4086,-72
4232,-138,4098,-126
4233,-171,4116,-126
4234,-171,4116,-78
4235,-129,4077,-78
4236,-60,4077,-78
4237,-60,4080,-66
4238,-66,4062,-66
4239,-66,4062,-111
4240,-114,4053,-111
4241,-81,4053,-117
4242,-81,4065,-81
4243,6,4140,-81
4244,6,4140,-81
4245,6,4119,-81
4246,-9,4119,-63
4247,-9,4137,-123
4248,57,4101,-123
4249,57,4101,-72
4250,51,4131,-72
4251,18,4131,-72
4252,18,4119,-36
4253,21,4131,-36
4254,21,4131,-72
4255,87,4152,-72
4256,153,4152,-18
4257,153,4194,-6
4258,189,4194,-6
4259,189,4272,33
4260,198,4206,33
4261,123,4206,0
4262,123,4188,-102
4263,165,4188,-102
4264,165,4161,-81
4265,327,4191,-81
4266,459,4191,-141
4267,459,4245,-186
4268,504,4245,-186
4269,504,4290,-216
4270,501,4278,-216
4271,555,4278,-168
4272,555,4299,-72
4273,621,4299,-72
4274,621,4308,-147
4275,714,4311,-147
4276,762,4311,-171
4277,762,4248,-153
4278,792,4248,-153
4279,792,4194,-183
4280,708,4170,-183
4281,741,4170,-156
4282,741,4257,-156
4283,861,4257,-132
4284,861,4308,-156
4285,957,4389,-156
4286,1158,4389,-168
4287,1158,4347,-168
4288,1206,4347,-156
4289,1206,4251,-186
4290,1188,4218,-186
4291,1032,4218,-78
4292,1032,4239,-78
4293,1053,4239,-156
4294,1053,4296,-81
4295,1215,4251,-81
4296,1215,4251,-126
4297,1389,4263,-126
4298,1377,4263,-156
4299,1377,4182,-87
4300,1299,4224,-87
4301,1299,4224,-93
4302,1344,4188,-93
4303,1377,4188,-63
4304,1377,4065,-93
4305,1491,4134,-93
4306,1491,4134,-48
4307,1617,4053,-48
4308,1845,4053,-87
4309,1845,4074,-57
4310,1992,4068,-57
4311,1992,4068,-51
4312,1917,3900,-51
4313,1800,3900,15
4314,1800,3813,-18
4315,1764,3735,-18
4316,1764,3735,24
4317,1935,3648,24
4318,2058,3648,69
4319,2058,3591,135
4320,2235,3591,135
4321,2235,3630,114
4322,2316,3579,114
4323,2505,3579,108
4324,2505,3606,150
4325,2475,3606,150
4326,2475,3357,69
4327,2343,3180,69
4328,2319,3180,90
4329,2319,3114,138
4330,2481,3114,138
4331,2481,3009,120
4332,2619,2985,120
4333,2829,2985,150
4334,2829,3123,135
4335,2958,3123,135
4336,2958,3075,120
4337,3096,3045,120
4338,3123,3045,75
4339,3123,2775,75
4340,3162,2775,75
4341,3162,2748,69
4342,3273,2925,69
4343,3366,2925,108
4344,3366,2796,108
4345,3309,2796,45
4346,3309,2499,18
4347,3345,2430,18
4348,3363,2430,93
4349,3363,2421,93
4350,3486,2421,-33
4351,3486,2469,9
4352,3600,2382,9
4353,3636,2382,78
4354,3636,2298,78
4355,3681,2298,33
4356,3681,2202,69
4357,3660,1956,69
4358,3765,1956,60
4359,3765,2052,60
4360,3711,2052,24
4361,3711,1890,144
4362,3657,1623,144
4363,3657,1623,180
4364,3561,1545,180
4365,3435,1545,249
4366,3435,1563,234
4367,3522,1428,234
4368,3522,1428,273
4369,3501,1233,273
4370,3663,1233,234
4371,3663,1269,273
4372,3531,1032,273
4373,3531,1032,270
4374,3549,960,270
4375,3630,960,255
4376,3630,1011,240
4377,3795,927,240
4378,3795,927,270
4379,3726,618,270
4380,3681,618,309
4381,3681,678,315
4382,3474,678,315
4383,3474,549,351
4384,3450,327,351
4385,3393,327,384
4386,3393,276,366
4387,3402,276,366
4388,3402,177,390
4389,3312,141,390
4390,3438,141,429
4391,3438,267,381
4392,3453,267,381
4393,3453,120,450
4394,3468,108,450
4395,3516,108,435
4396,3516,39,429
4397,3441,39,429
4398,3441,-66,435
4399,3486,-165,435
4400,3543,-165,444
4401,3543,-60,501
4402,3696,-60,501
4403,3696,-42,474
4404,3645,-159,474
4405,3756,-159,459
4406,3756,-27,459
4407,3744,-27,492
4408,3744,-165,495
4409,3750,-69,495
4410,3933,-69,486
4411,3933,87,486
4412,4041,87,435
4413,4041,51,471
4414,4026,78,471
4415,4110,78,444
4416,4110,123,444
4417,4035,123,384
4418,4035,45,420
4419,4101,120,420
4420,4101,120,426
4421,4125,117,426
4422,4191,117,429
4423,4191,153,414
4424,4161,42,414
4425,4161,42,471
4426,4203,153,471
4427,4119,153,471
4428,4119,114,501
4429,4173,159,501
4430,4173,159,411
4431,4134,108,411
4432,4191,108,444
4433,4191,141,456
4434,4110,84,456
4435,4110,84,435
4436,4044,90,435
4437,3966,90,426
4438,3966,78,459
4439,3975,78,459
4440,3975,36,399
4441,3996,108,399
4442,3867,108,429
4443,3867,90,411
4444,4089,90,411
4445,4089,162,399
4446,4101,126,399
4447,4164,126,411
4448,4164,204,426
4449,4173,204,426
4450,4173,180,339
4451,4068,108,339
4452,3996,108,414
4453,3996,30,414
4454,3981,30,414
4455,3981,123,459
4456,4014,102,459
4457,4023,102,444
4458,4023,69,456
4459,3963,69,456
4460,3963,27,426
4461,3882,18,426
4462,3828,18,396
4463,3828,0,399
4464,3837,0,399
4465,3837,153,429
4466,3846,75,429
4467,3882,75,441
4468,3882,66,420
4469,3723,66,420
4470,3723,30,471
4471,3675,132,471
4472,3711,132,435
4473,3711,216,435
4474,3762,216,456
4475,3762,183,426
4476,3723,267,426
4477,3876,267,420
4478,3876,468,420
4479,4071,468,381
4480,4071,450,381
4481,4104,516,381
4482,4050,516,504
4483,4050,576,504
4484,3936,576,444
4485,3936,462,516
4486,3879,489,516
4487,3879,489,480
4488,3795,351,480
4489,3636,351,405
4490,3636,333,450
4491,3645,489,450
4492,3645,489,480
4493,3690,588,480
4494,3660,588,471
4495,3660,570,360
4496,3618,639,360
4497,3618,639,336
4498,3429,672,336
4499,3438,672,381
4500,3438,723,339
4501,3600,1053,339
4502,3600,1053,279
4503,3726,1086,279
4504,3714,1086,324
4505,3714,1134,375
4506,3648,1215,375
4507,3648,1215,279
4508,3501,1020,279
4509,3354,1020,324
4510,3354,1449,264
4511,3276,1449,264
4512,3276,1194,255
4513,3300,1281,255
4514,3195,1281,294
4515,3195,1590,396
4516,3345,1590,396
4517,3345,1707,330
4518,3381,1740,330
4519,3183,1740,270
4520,3183,1716,324
4521,3060,1716,324
4522,3060,2028,336
4523,3216,2463,336
4524,3354,2463,234
4525,3354,2451,234
4526,3381,2451,234
4527,3381,2457,204
4528,3303,2580,204
4529,3417,2580,210
4530,3417,3012,159
4531,3504,3012,159
4532,3504,3060,123
4533,3585,2958,123
4534,3414,2958,195
4535,3414,2799,165
4536,3126,2799,165
4537,3126,2898,210
4538,3078,3072,210
4539,3033,3072,234
4540,3033,3015,234
4541,2958,3015,258
4542,2958,3030,264
4543,2790,3069,264
4544,2664,3069,294
4545,2664,3132,294
4546,2559,3132,285
4547,2559,3372,249
4548,2556,3381,249
4549,2646,3381,234
4550,2646,3456,234
4551,2586,3456,165
4552,2586,3375,168
4553,2454,3393,168
4554,2454,3393,159
4555,2418,3498,159
4556,2130,3498,165
4557,2130,3366,138
4558,2058,3687,138
4559,2058,3687,90
4560,2004,3765,90
4561,2148,3765,153
4562,2148,3819,168
4563,2178,3870,168
4564,2178,3870,144
4565,2112,4005,144
4566,2055,4005,210
4567,2055,4263,120
4568,2061,4053,120
4569,2061,4053,84
4570,1908,4011,84
4571,1785,4011,54
4572,1785,3981,105
4573,1602,3834,105
4574,1602,3834,153
4575,1485,3702,153
4576,1413,3702,120
4577,1413,3759,183
4578,1353,3759,183
4579,1353,3798,279
4580,1176,3879,279
4581,1197,3879,321
4582,1197,4008,255
4583,1047,4008,255
4584,1047,3990,279
4585,1026,3906,279
4586,1020,3906,210
4587,1020,3918,165
4588,990,3918,165
4589,990,3978,90
4590,885,4047,90
4591,744,4047,84
4592,744,4125,105
4593,681,4125,105
4594,681,4236,153
4595,858,4362,153
4596,933,4362,195
4597,933,4410,123
4598,921,4410,123
4599,921,4422,93
4600,804,4353,93
4601,768,4353,15
4602,768,4341,24
4603,729,4341,24
4604,729,4341,-72
4605,762,4317,-72
4606,735,4317,-108
4607,735,4284,-87
4608,585,4284,-87
4609,585,4173,-93
4610,387,4107,-93
4611,264,4107,-48
4612,264,4122,-48
4613,285,4122,-6
4614,285,4251,48
4615,438,4299,48
4616,456,4299,3
4617,456,4335,3
4618,351,4335,3
4619,351,4272,-51
4620,405,4284,-51
4621,402,4284,-81
4622,402,4320,-81
4623,486,4320,9
4624,486,4269,-78
4625,366,4305,-78
4626,198,4305,-63
4627,198,4248,-63
4628,147,4248,-81
4629,147,4245,-126
4630,84,4113,-126
4631,84,4113,-117
4632,105,4146,-117
4633,57,4146,-81
4634,57,4215,-66
4635,24,4212,-66
4636,24,4212,-78
4637,72,4176,-78
4638,27,4176,-81
4639,27,4119,-93
4640,75,4104,-93
4641,75,4104,-201
4642,63,4104,-201
4643,108,4104,-183
4644,108,4143,-186
4645,111,4134,-186
4646,111,4134,-108
4647,84,4140,-108
4648,42,4140,-138
4649,42,4158,-111
4650,-36,4065,-111
4651,-36,4065,-132
4652,-24,4083,-132
4653,-18,4083,-237
4654,-18,4050,-177
4655,-12,4050,-177
4656,-12,4068,-171
4657,60,4149,-171
4658,96,4149,-183
4659,96,4122,-111
4660,21,4122,-111
4661,21,4119,-102
4662,-42,4062,-102
4663,-66,4062,-126
4664,-66,4086,-111
4665,-63,4086,-111
4666,-63,4056,-153
4667,-24,4107,-153
4668,57,4107,-141
4669,57,4092,-126
4670,69,4092,-126
4671,69,4143,-132
4672,78,4065,-132
4673,45,4065,-156
4674,45,4113,-57
4675,-9,4113,-57
4676,-9,4083,-102
4677,15,4092,-102
4678,3,4092,-33
4679,3,4110,-72
4680,60,4110,-72
4681,60,4092,-66
4682,123,4104,-66
4683,84,4104,-96
4684,84,4140,-102
4685,72,4140,-102
4686,72,4155,-93
4687,42,4140,-93
4688,54,4140,-66
4689,54,4089,-66
4690,63,4089,-78
4691,63,4080,-162
4692,78,4146,-162
4693,60,4146,-117
4694,60,4188,-117
4695,93,4188,-183
4696,93,4191,-138
4697,105,4140,-138
4698,60,4140,-162
4699,60,4170,-162
4700,-27,4170,-171
4701,-27,4155,-162
4702,-27,4200,-162
4703,-27,4200,-153
4704,42,4293,-153
4705,90,4293,-138
4706,90,4236,-72
4707,93,4176,-72
4708,93,4176,-162
4709,9,4122,-162
4710,-18,4122,-111
4711,-18,4113,-102
4712,69,4110,-102
4713,69,4110,-42
4714,123,4146,-42
4715,138,4146,-108
4716,138,4155,-126
4717,69,4131,-126
4718,69,4131,-63
4719,27,4110,-63
4720,75,4110,-171
4721,75,4086,-147
4722,96,4137,-147
4723,96,4137,-162
4724,78,4170,-162
4725,105,4170,-177
4726,105,4176,-213
4727,54,4176,-213
4728,54,4197,-147
4729,3,4170,-147
4730,96,4170,-117
4731,96,4158,-213
4732,138,4158,-213
4733,138,4086,-213
4734,183,4092,-213
4735,177,4092,-183
4736,177,4116,-138
4737,192,4116,-138
4738,192,4089,-78
4739,159,4113,-78
4740,111,4113,-96
4741,111,4131,-108
4742,111,4131,-108
4743,111,4110,-93
4744,105,4137,-93
4745,60,4137,-57
4746,60,4173,-57
4747,-45,4173,-108
4748,-45,4236,-66
4749,-111,4329,-66
4750,-114,4329,-96
4751,-114,4362,-96
4752,-42,4362,-63
4753,-42,4311,-66
4754,72,4260,-66
4755,132,4260,9
4756,132,4215,9
4757,93,4215,54
4758,93,4182,123
4759,117,4140,123
4760,117,4140,129
4761,198,4044,129
4762,231,4044,189
4763,231,3930,183
4764,216,3900,183
4765,216,3900,279
4766,111,3882,279
4767,21,3882,285
4768,21,3954,243
4769,42,3927,243
4770,42,3927,204
4771,138,3945,204
4772,195,3945,195
4773,195,3963,210
4774,90,3927,210
4775,90,3927,153
4776,0,3921,153
4777,75,3921,120
4778,75,3954,135
4779,126,4029,135
4780,126,4029,153
4781,108,4083,153
4782,39,4083,198
4783,39,4062,204
4784,-6,4062,204
4785,-6,4023,189
4786,-21,4005,189
4787,63,4005,135
4788,63,3966,165
4789,93,3966,165
4790,93,4011,180
4791,45,3990,180
4792,69,3990,183
4793,69,3987,258
4794,129,3987,258
4795,129,3939,234
4796,180,3942,234
4797,126,3942,288
4798,126,3972,225
4799,156,3972,225
4800,156,4047,165
4801,210,4053,165
4802,276,4053,213
4803,276,4143,234
4804,294,4143,234
4805,294,4158,234
4806,297,4203,234
4807,279,4203,249
4808,279,4221,249
4809,363,4221,303
4810,363,4167,381
4811,420,4098,381
4812,405,4098,384
4813,405,4056,384
4814,405,4056,441
4815,405,3972,474
4816,381,3933,474
4817,303,3933,549
4818,303,3912,549
4819,294,3912,504
4820,294,3852,444
4821,315,3888,444
4822,384,3888,465
4823,384,3954,465
4824,369,3954,399
4825,369,3933,399
4826,324,3993,399
4827,324,3993,339
4828,276,4137,339
4829,237,4137,315
4830,237,4356,264
4831,207,4527,264
4832,207,4527,210
4833,177,4452,210
4834,111,4452,180
4835,111,4314,99
4836,216,3999,99
4837,216,3999,48
4838,339,3819,48
4839,363,3819,84
4840,363,3834,255
4841,306,3915,255
4842,306,3915,351
4843,288,3990,351
4844,294,3990,510
4845,294,3954,435
4846,150,3996,435
4847,150,3996,474
4848,78,4098,474
4849,21,4098,444
4850,21,4146,390
4851,93,4146,390
4852,93,4170,228
4853,228,4227,228
4854,387,4227,138
4855,387,4233,168
4856,432,4233,168
4857,432,4152,225
4858,318,4125,225
4859,306,4125,294
4860,306,4059,375
4861,330,4059,375
4862,330,4029,465
4863,369,4002,465
4864,363,4002,435
4865,363,3990,366
4866,303,3990,366
4867,303,3906,411
4868,231,3942,411
4869,246,3942,369
4870,246,4008,315
4871,294,4008,315
4872,294,4083,336
4873,300,4191,336
4874,330,4191,309
4875,330,4215,309
4876,297,4215,249
4877,297,4185,213
4878,285,4107,213
4879,264,4107,168
4880,264,4050,168
4881,270,4050,174
4882,270,4023,243
4883,297,4038,243
4884,270,4038,255
4885,270,4041,255
4886,210,4041,255
4887,210,4032,225
4888,231,3993,225
4889,231,3993,204
4890,207,4008,204
4891,180,4008,264
4892,180,4008,219
4893,165,4017,219
4894,165,4017,240
4895,114,4062,240
4896,78,4062,243
4897,78,4029,285
4898,186,4035,285
4899,186,4035,303
4900,231,4032,303
4901,255,4032,336
4902,255,4083,273
4903,279,4008,273
4904,279,4008,330
4905,264,4056,330
4906,267,4056,351
4907,267,4053,303
4908,345,4083,303
4909,345,4083,339
4910,264,4068,339
4911,195,4068,351
4912,195,4107,351
4913,234,4107,351
4914,234,4107,336
4915,306,4116,336
4916,243,4116,339
4917,243,4125,351
4918,195,4080,351
4919,195,4080,399
4920,201,4041,399
4921,150,4041,354
4922,150,4053,330
4923,186,4053,330
4924,186,4059,309
4925,213,4044,309
4926,207,4044,339
4927,207,4104,360
4928,117,4104,360
4929,117,4092,279
4930,90,4062,279
4931,138,4062,309
4932,138,4056,300
4933,195,4056,300
4934,195,4065,300
4935,168,4056,300
4936,111,4056,183
4937,111,4047,258
4938,87,4047,258
4939,87,4047,324
4940,162,4044,324
4941,216,4044,288
4942,216,4017,315
4943,177,4017,315
4944,177,4038,270
4945,105,4032,270
4946,60,4032,273
4947,60,4068,303
4948,81,4068,303
4949,81,4134,324
4950,138,4125,324
4951,108,4125,255
4952,108,4110,255
4953,111,4110,255
4954,111,4089,264
4955,180,4137,264
4956,300,4137,336
4957,300,4071,336
4958,288,4071,240
4959,288,4089,300
4960,255,4035,300
4961,276,4035,264
4962,276,4056,264
4963,216,4056,279
4964,216,4125,300
4965,225,4113,300
4966,279,4113,195
4967,279,4113,195
4968,207,4113,144
4969,207,4086,150
4970,114,4023,150
4971,114,4023,75
4972,159,4020,75
4973,198,4020,123
4974,198,4029,153
4975,177,4086,153
4976,177,4086,159
4977,192,4053,159
4978,261,4053,63
4979,261,3978,69
4980,216,3996,69
4981,216,3996,114
4982,219,4053,114
4983,177,4053,150
4984,177,4119,150
4985,264,4080,150
4986,264,4080,105
4987,375,4110,105
4988,450,4110,123
4989,450,4245,129
4990,504,4206,129
4991,504,4206,108
4992,459,4224,108
4993,489,4224,63
4994,489,4305,99
4995,729,4371,99
4996,729,4371,138
4997,984,4512,138
4998,1113,4512,93
4999,1113,4611,99
5000,1176,4611,99
5001,1176,4446,-72
5002,1221,4386,-72
5003,1113,4386,-18
5004,1113,4446,-6
5005,1140,4446,-6
5006,1140,4503,30
5007,1305,4509,30
5008,1422,4509,39
5009,1422,4551,-6
5010,1446,4551,-6
5011,1446,4491,-51
5012,1467,4488,-51
5013,1542,4488,-12
5014,1542,4416,-102
5015,1755,4416,-102
5016,1755,4359,-21
5017,1776,4287,-21
5018,1779,4287,-18
5019,1779,4257,-6
5020,1845,4257,-6
5021,1845,4353,54
5022,1974,4422,54
5023,2058,4422,75
5024,2058,4422,54
5025,2232,4422,54
5026,2232,4524,15
5027,2442,4422,15
5028,2508,4422,-63
5029,2508,4218,-63
5030,2187,4218,-138
5031,2187,3942,-93
5032,2070,3753,-93
5033,2208,3753,-87
5034,2208,3861,-87
5035,2448,3861,9
5036,2448,4080,-93
5037,2586,3816,-93
5038,2553,3816,45
5039,2553,3522,45
5040,2568,3522,0
5041,2568,3426,24
5042,2658,3321,24
5043,2838,3321,48
5044,2838,3429,48
5045,3060,3429,105
5046,3060,3378,60
5047,3351,3327,60
5048,3351,3327,93
5049,3438,2925,93
5050,3177,2925,45
5051,3177,2691,18
5052,3144,2757,18
5053,3144,2757,3
5054,3267,2454,3
5055,3501,2454,3
5056,3501,2505,159
5057,3813,2415,159
5058,3813,2415,90
5059,3846,1776,90
5060,3669,1776,18
5061,3669,1662,-36
5062,3465,1779,-36
5063,3465,1779,33
5064,3465,1326,33
5065,3402,1326,93
5066,3402,1023,180
5067,3372,1203,180
5068,3372,1203,153
5069,3378,933,153
5070,3315,933,213
5071,3315,261,258
5072,3006,261,258
5073,3006,285,321
5074,2613,51,321
5075,2499,51,366
5076,2499,45,366
5077,2556,45,366
5078,2556,-291,441
5079,2631,-201,441
5080,2571,-201,405
5081,2571,-369,375
5082,2628,-369,375
5083,2628,-408,381
5084,2793,-324,381
5085,2985,-324,309
5086,2985,-318,285
5087,3240,-318,285
5088,3240,-174,306
5089,3447,-291,306
5090,3612,-291,330
5091,3612,-228,330
5092,3756,-228,291
5093,3756,-195,264
5094,3690,-444,264
5095,3558,-444,249
5096,3558,-390,249
5097,3507,-390,276
5098,3507,-345,264
5099,3552,-381,264
5100,3600,-381,216
5101,3600,-342,216
5102,3567,-342,204
5103,3567,-198,159
5104,3474,-351,159
5105,3474,-351,180
5106,3396,-267,180
5107,3234,-267,219
5108,3234,-390,255
5109,3075,-279,255
5110,3075,-279,255
5111,2928,-66,255
5112,3069,-66,330
5113,3069,237,273
5114,3216,153,273
5115,3216,153,288
5116,3258,285,288
5117,3183,285,288
5118,3183,525,285
5119,3417,1059,285
5120,3417,1059,114
5121,3636,993,114
5122,3660,993,-57
5123,3660,846,-27
5124,3807,1491,-27
5125,3807,1491,-72
5126,3999,1503,-72
5127,4203,1503,-81
5128,4203,1584,-213
5129,4170,1299,-213
5130,4170,1299,-177
5131,4029,1569,-177
5132,3996,1569,-147
5133,3996,1992,-171
5134,4209,1968,-171
5135,4209,1968,-162
5136,4254,1725,-162
5137,4047,1725,-126
5138,4047,1566,-81
5139,3828,1566,-81
5140,3828,1953,3
5141,3801,2304,3
5142,3921,2304,-93
5143,3921,2124,0
5144,3858,2124,0
5145,3858,1983,93
5146,3696,2034,93
5147,3519,2034,105
5148,3519,2238,153
5149,3486,2238,153
5150,3486,2634,150
5151,3435,2337,150
5152,3255,2337,153
5153,3255,2235,138
5154,3015,2235,138
5155,3015,2346,150
5156,2976,2583,150
5157,2934,2583,108
5158,2934,2454,138
5159,2895,2454,138
5160,2895,2571,240
5161,2670,2799,240
5162,2505,2799,150
5163,2505,2862,174
5164,2511,2862,174
5165,2511,3042,54
5166,2457,3069,54
5167,2499,3069,-51
5168,2499,3117,-51
5169,2415,3117,-51
5170,2415,3231,-36
5171,2379,3270,-36
5172,2181,3270,54
5173,2181,3375,54
5174,2097,3375,108
5175,2097,3657,45
5176,2010,3726,45
5177,2160,3726,108
5178,2160,3825,108
5179,2157,3825,3
5180,2157,3888,30
5181,1902,3846,30
5182,1671,3846,-48
5183,1671,3927,-48
5184,1677,3927,-63
5185,1677,4044,-21
5186,1818,3984,-21
5187,1707,3984,75
5188,1707,4029,75
5189,1542,4029,249
5190,1542,4137,300
5191,1440,4236,300
5192,1440,4236,189
5193,1512,4494,189
5194,1587,4494,174
5195,1587,4350,114
5196,1551,4176,114
5197,1551,4176,114
5198,1557,4173,114
5199,1395,4173,144
5200,1395,4290,294
5201,1215,4464,294
5202,1215,4464,300
5203,990,4431,300
5204,1104,4431,240
5205,1104,4362,450
5206,1074,4362,450
5207,1074,4458,441
5208,936,4581,441
5209,885,4581,390
5210,885,4575,339
5211,954,4575,339
5212,954,4602,249
5213,1026,4512,249
5214,1068,4512,99
5215,1068,4437,183
5216,984,4437,183
5217,984,4407,153
5218,837,4401,153
5219,717,4401,198
5220,717,4404,183
5221,693,4404,183
5222,693,4344,174
5223,699,4233,174
5224,621,4233,123
5225,621,4185,180
5226,597,4185,180
5227,597,4119,129
5228,465,4023,129
5229,375,4023,138
5230,375,3999,138
5231,354,3999,135
5232,354,4089,123
5233,423,4137,123
5234,474,4137,210
5235,474,4134,210
5236,456,4134,213
5237,456,4098,219
5238,366,4092,219
5239,252,4092,150
5240,252,3990,150
5241,150,3990,165
5242,150,3984,243
5243,168,3993,243
5244,168,3993,264
5245,213,4110,264
5246,339,4110,369
5247,339,4116,459
5248,339,4086,459
5249,339,4086,369
5250,294,3999,369
5251,207,3999,330
5252,207,3981,366
5253,144,4035,366
5254,144,4035,426
5255,138,4029,426
5256,237,4029,336
5257,237,4047,405
5258,255,4023,405
5259,255,4023,405
5260,219,4008,405
5261,198,4008,480
5262,198,4017,426
5263,198,4017,426
5264,198,4035,519
5265,243,4083,519
5266,282,4083,426
5267,282,4029,411
5268,282,4029,411
5269,282,4032,336
5270,279,4047,336
5271,279,4047,474
5272,279,4074,375
5273,294,4074,375
5274,294,4119,351
5275,261,4038,351
5276,270,4038,405
5277,270,4074,405
5278,276,4074,381
5279,276,4083,324
5280,357,4020,324
5281,354,4020,336
5282,354,4017,336
5283,303,4017,324
5284,303,4032,345
5285,261,4017,345
5286,243,4017,375
5287,243,4014,375
5288,267,4014,324
5289,267,4002,294
5290,279,4038,294
5291,279,4038,270
5292,321,4032,270
5293,276,4032,339
5294,276,4059,288
5295,285,4074,288
5296,285,4074,285
5297,312,4125,285
5298,372,4125,294
5299,372,4092,249
5300,432,4107,249
5301,432,4107,300
5302,354,4113,300
5303,306,4113,381
5304,306,4059,411
5305,318,4119,411
5306,318,4119,354
5307,417,4071,354
5308,435,4071,411
5309,435,4092,399
5310,402,4041,399
5311,402,4041,384
5312,336,4020,384
5313,270,4020,390
5314,270,4035,360
5315,306,4035,360
5316,306,4050,390
5317,423,4107,390
5318,423,4107,366
5319,423,4140,321
5320,381,4140,321
5321,381,4083,354
5322,288,4095,354
5323,312,4095,369
5324,312,4068,303
5325,357,4068,303
5326,357,4068,360
5327,336,4122,360
5328,294,4122,336
5329,294,4071,324
5330,330,4071,324
5331,330,4002,324
5332,321,4008,324
5333,312,4008,294
5334,312,4041,294
5335,345,4041,273
5336,345,4056,285
5337,315,4068,285
5338,315,4068,258
5339,315,4050,258
5340,267,4050,288
5341,267,4065,285
5342,321,4083,285
5343,321,4083,336
5344,312,4098,336
5345,303,4098,315
5346,303,4107,321
5347,321,4092,321
5348,321,4092,384
5349,414,4089,384
5350,414,4089,369
5351,414,4050,324
5352,333,4044,324
5353,333,4044,354
5354,315,4047,354
5355,357,4047,381
5356,357,4089,384
5357,381,4071,384
5358,381,4071,339
5359,384,4059,339
5360,387,4059,339
5361,387,4050,351
5362,348,4047,351
5363,348,4047,366
5364,330,4068,366
5365,354,4068,315
5366,354,4068,273
5367,321,4068,273
5368,321,4068,240
5369,339,4050,240
5370,357,4050,240
5371,357,4056,240
5372,357,4056,240
5373,357,4032,285
5374,339,4032,285
5375,261,4032,294
5376,261,4041,258
5377,306,4041,258
5378,306,4011,273
5379,330,4008,273
5380,354,4008,360
5381,354,4059,288
5382,351,4059,288
5383,351,4074,285
5384,306,4053,285
5385,318,4053,339
5386,318,4038,273
5387,339,4038,273
5388,339,4023,330
5389,381,4008,330
5390,402,4008,330
5391,402,4020,255
5392,384,4020,255
5393,384,4041,273
5394,366,4068,273
5395,354,4068,285
5396,354,4041,285
5397,354,4041,315
5398,354,4038,273
5399,399,4071,273
5400,369,4071,240
5401,369,4125,240
5402,381,4125,243
5403,381,4083,228
5404,387,4098,228
5405,318,4098,294
5406,318,4047,294
5407,282,4047,336
5408,282,4056,243
5409,339,4023,243
5410,339,4023,255
5411,432,4083,255
5412,384,4083,234
5413,384,4098,225
5414,321,4059,225
5415,321,4059,255
5416,294,4083,255
5417,285,4083,249
5418,285,4116,303
5419,336,4107,303
5420,336,4107,249
5421,369,4086,249
5422,366,4086,321
5423,366,4053,288
5424,303,4065,288
5425,303,4065,279
5426,300,4059,279
5427,279,4059,264
5428,279,4068,285
5429,363,4062,285
5430,363,4062,315
5431,336,4089,315
5432,348,4089,288
5433,348,4074,336
5434,294,4074,336
5435,294,4098,288
5436,339,4044,288
5437,408,4044,189
5438,408,4050,243
5439,366,4050,243
5440,366,4029,234
5441,339,4047,234
5442,351,4047,258
5443,351,4059,264
5444,423,4059,264
5445,423,4080,264
5446,444,4104,264
5447,459,4104,243
5448,459,4089,210
5449,489,4089,210
5450,489,4101,249
5451,483,4104,249
5452,420,4104,174
5453,420,4080,174
5454,408,4080,195
5455,408,4104,189
5456,393,4023,189
5457,405,4023,153
5458,405,4047,153
5459,366,4047,195
5460,366,4038,198
5461,315,4041,198
5462,306,4041,213
5463,306,4071,213
5464,330,4071,183
5465,330,4095,315
5466,336,4107,315
5467,333,4107,228
5468,333,4101,228
5469,387,4101,228
5470,387,4065,225
5471,393,4116,225
5472,393,4116,264
5473,333,4095,264
5474,294,4095,255
5475,294,4101,294
5476,345,4041,294
5477,345,4041,330
5478,375,4041,330
5479,369,4041,285
5480,369,4038,279
5481,318,4065,279
5482,318,4065,324
5483,330,4092,324
5484,330,4092,309
5485,330,4056,303
5486,375,4044,303
5487,375,4044,315
5488,375,4092,315
5489,408,4092,303
5490,408,4056,288
5491,390,4056,288
5492,390,4071,249
5493,375,4062,249
5494,303,4062,264
5495,303,4062,264
5496,345,4062,264
5497,345,4089,240
5498,321,4089,240
5499,315,4089,249
5500,315,4086,285
5501,312,4086,285
5502,312,4083,219
5503,369,4134,219
5504,408,4134,270
5505,408,4104,258
5506,408,4104,258
5507,408,4095,198
5508,393,4044,198
5509,345,4044,228
5510,345,4053,270
5511,297,4053,270
5512,297,4095,369
5513,285,4101,369
5514,282,4101,351
5515,282,4062,351
5516,285,4062,330
5517,285,4059,258
5518,282,4032,258
5519,297,4032,288
5520,297,4053,288
5521,264,4053,228
5522,264,4092,249
5523,246,4110,249
5524,267,4110,270
5525,267,4086,270
5526,318,4086,264
5527,318,4050,303
5528,330,4059,303
5529,330,4059,228
5530,321,4035,228
5531,279,4035,303
5532,279,4005,288
5533,267,4038,288
5534,267,4038,324
5535,339,3990,324
5536,357,3990,303
5537,357,4035,240
5538,324,4062,240
5539,324,4062,225
5540,276,4056,225
5541,321,4056,225
5542,321,4038,135
5543,270,4038,135
5544,270,4047,219
5545,267,4032,219
5546,237,4032,234
5547,237,4080,285
5548,234,4080,285
5549,234,4101,336
5550,300,4137,336
5551,357,4137,285
5552,357,4089,249
5553,372,4089,249
5554,372,4062,264
5555,354,4041,264
5556,315,4041,309
5557,315,4098,294
5558,297,4098,294
5559,297,4152,381
5560,351,4125,381
5561,375,4125,243
5562,375,4065,288
5563,336,4065,288
5564,336,4104,330
5565,288,4038,330
5566,252,4038,285
5567,252,4062,240
5568,288,4062,240
5569,288,4056,294
5570,306,4041,294
5571,300,4041,273
5572,300,4062,273
5573,297,4062,279
5574,297,4107,354
5575,246,4092,354
5576,261,4092,300
5577,261,4044,300
5578,267,4044,258
5579,267,4023,270
5580,231,4029,270
5581,231,4029,219
5582,237,4020,219
5583,195,4020,285
5584,195,4008,180
5585,126,4035,180
5586,126,4035,204
5587,183,3987,204
5588,144,3987,234
5589,144,4032,174
5590,183,4092,174
5591,183,4092,258
5592,231,4074,258
5593,279,4074,225
5594,279,4080,195
5595,243,4056,195
5596,243,4056,180
5597,288,4083,180
5598,336,4083,234
5599,336,4191,279
5600,387,4212,279
5601,387,4212,270
5602,489,4161,270
5603,501,4161,198
5604,501,4125,249
5605,546,4125,249
5606,546,4131,303
5607,660,4233,303
5608,798,4233,288
5609,798,4377,279
5610,918,4377,279
5611,918,4389,300
5612,1176,4470,300
5613,1287,4470,273
5614,1287,4455,255
5615,1362,4455,255
5616,1362,4449,150
5617,1563,4377,150
5618,1698,4377,93
5619,1698,4410,183
5620,1629,4410,183
5621,1629,4416,180
5622,1419,4299,180
5623,1143,4299,195
5624,1143,4287,195
5625,1224,4287,114
5626,1224,4362,54
5627,1602,4476,54
5628,1896,4476,-93
5629,1896,4554,-93
5630,2148,4554,45
5631,2148,4560,60
5632,1974,4479,60
5633,2007,4479,9
5634,2007,4452,9
5635,2244,4452,-12
5636,2244,4566,153
5637,2520,4635,153
5638,2520,4635,153
5639,2631,4650,153
5640,2682,4650,168
5641,2682,4563,108
5642,2796,4632,108
5643,2796,4632,198
5644,2838,4497,198
5645,2571,4497,144
5646,2571,4215,204
5647,2349,4188,204
5648,2349,4188,213
5649,2472,3783,213
5650,2697,3783,210
5651,2697,3462,243
5652,2847,3570,243
5653,2847,3570,219
5654,2880,3630,219
5655,2784,3630,258
5656,2784,3213,135
5657,2814,3213,135
5658,2814,2784,84
5659,2826,2667,84
5660,2811,2667,108
5661,2811,2628,153
5662,2973,2628,153
5663,2973,2526,225
5664,3024,2406,225
5665,2868,2406,198
5666,2868,1716,135
5667,2847,1716,135
5668,2847,1698,174
5669,2940,1890,174
5670,3144,1890,228
5671,3144,1653,204
5672,3516,1653,204
5673,3516,1602,120
5674,3612,1140,120
5675,3432,1140,174
5676,3432,753,219
5677,3198,753,219
5678,3198,441,336
5679,2985,237,336
5680,2784,237,396
5681,2784,270,396
5682,2523,270,525
5683,2523,-36,516
5684,2298,-342,516
5685,2163,-342,510
5686,2163,-366,510
5687,2199,-366,507
5688,2199,-351,552
5689,2379,-273,552
5690,2538,-273,630
5691,2538,-183,630
5692,2649,-183,570
5693,2649,-282,552
5694,2883,-282,552
5695,2883,-282,591
5696,2964,-303,591
5697,2937,-303,666
5698,2937,-351,546
5699,2880,-240,546
5700,2880,-240,507
5701,3147,144,507
5702,3345,144,495
5703,3345,177,489
5704,3420,126,489
5705,3420,126,429
5706,3789,468,429
5707,3789,468,405
5708,3789,234,336
5709,3627,78,336
5710,3627,78,345
5711,3660,588,345
5712,3177,588,504
5713,3177,474,621
5714,2997,474,621
5715,2997,483,510
5716,2955,474,510
5717,2862,474,570
5718,2862,756,534
5719,3033,756,534
5720,3033,1215,384
5721,2955,1212,384
5722,2988,1212,255
5723,2988,1647,213
5724,2931,1647,213
5725,2931,1974,243
5726,3216,1983,243
5727,3621,1983,240
5728,3621,2211,204
5729,3471,2211,204
5730,3471,2340,165
5731,3300,2796,165
5732,3192,2796,159
5733,3192,2991,135
5734,3198,2991,135
5735,3198,3090,123
5736,3450,2919,123
5737,3501,2919,90
5738,3501,2931,90
5739,3393,2931,159
5740,3393,3093,228
5741,3243,3597,228
5742,3177,3597,108
5743,3177,3645,108
5744,3225,3645,75
5745,3225,3411,-27
5746,3345,3192,-27
5747,3300,3192,30
5748,3300,3054,30
5749,3006,3054,174
5750,3006,3342,243
5751,2664,3579,243
5752,2664,3579,336
5753,2313,3594,336
5754,2148,3594,330
5755,2148,3489,336
5756,2193,3585,336
5757,2193,3585,375
5758,2283,3609,375
5759,2226,3609,444
5760,2226,3996,456
5761,1992,3987,456
5762,1992,3987,294
5763,1884,4248,294
5764,1740,4248,198
5765,1740,4185,84
5766,1917,4242,84
5767,1917,4242,99
5768,2160,4236,99
5769,2019,4236,198
5770,2019,4284,168
5771,1623,4251,168
5772,1623,4251,225
5773,1116,4176,225
5774,1080,4176,210
5775,1080,4083,189
5776,1284,4083,189
5777,1284,4095,225
5778,1287,4107,225
5779,1095,4107,225
5780,1095,4245,150
5781,858,4245,150
5782,858,4362,180
5783,858,4422,180
5784,1002,4422,204
5785,1002,4530,204
5786,1167,4530,204
5787,1167,4524,114
5788,1260,4710,114
5789,1146,4710,114
5790,1146,4632,48
5791,870,4632,48
5792,870,4449,33
5793,771,4323,33
5794,675,4323,-48
5795,675,4299,-48
5796,648,4299,15
5797,648,4242,129
5798,486,4308,129
5799,477,4308,99
5800,477,4293,99
5801,474,4293,195
5802,474,4251,183
5803,504,4185,183
5804,459,4185,198
5805,459,4146,198
5806,405,4146,180
5807,405,4098,294
5808,174,4146,294
5809,75,4146,264
5810,75,4101,264
5811,156,4101,189
5812,156,4086,174
5813,294,4083,174
5814,369,4083,213
5815,369,4200,213
5816,180,4200,183
5817,180,4167,153
5818,78,4110,153
5819,78,4110,135
5820,21,4098,135
5821,-21,4098,204
5822,-21,4086,120
5823,144,4098,120
5824,144,4098,165
5825,129,4104,165
5826,78,4104,93
5827,78,4044,120
5828,3,4035,120
5829,3,4035,180
5830,-15,4125,180
5831,45,4125,198
5832,45,4065,189
5833,144,4035,189
5834,144,4035,120
5835,216,4044,120
5836,207,4044,123
5837,207,4101,159
5838,108,4053,159
5839,108,4053,189
5840,27,4083,189
5841,78,4083,213
5842,78,4089,168
5843,243,4089,168
5844,243,4104,135
5845,312,4101,135
5846,225,4101,168
5847,225,4083,195
5848,180,4083,195
5849,180,4056,138
5850,63,4044,138
5851,114,4044,153
5852,114,4089,213
5853,207,4089,213
5854,207,4104,153
5855,285,4104,153
5856,279,4104,144
5857,279,4056,108
5858,213,4056,108
5859,213,4014,60
5860,129,3996,60
5861,114,3996,138
5862,114,4023,129
5863,165,4023,129
5864,165,4095,168
5865,201,4110,168
5866,228,4110,174
5867,228,4131,174
5868,159,4131,174
5869,159,4071,135
5870,150,4074,135
5871,225,4074,129
5872,225,4089,129
5873,264,4089,195
5874,264,4074,174
5875,282,4122,174
5876,294,4122,198
5877,294,4140,198
5878,297,4140,153
5879,297,4083,204
5880,216,4080,204
5881,174,4080,219
5882,174,4098,219
5883,201,4098,213
5884,201,4203,264
5885,279,4209,264
5886,306,4209,240
5887,306,4203,240
5888,243,4203,279
5889,243,4152,228
5890,228,4116,228
5891,255,4116,264
5892,255,4155,264
5893,228,4155,294
5894,228,4176,273
5895,261,4119,273
5896,261,4119,288
5897,267,4074,288
5898,249,4074,285
5899,249,4068,279
5900,225,4029,279
5901,225,4029,204
5902,138,4029,204
5903,126,4029,189
5904,126,4038,213
5905,168,4035,213
5906,168,4035,195
5907,237,4020,195
5908,231,4020,168
5909,231,4017,165
5910,186,3972,165
5911,186,3972,138
5912,228,3999,138
5913,210,3999,168
5914,210,4029,114
5915,228,4023,114
5916,228,4023,264
5917,324,4074,264
5918,333,4074,168
5919,333,4119,225
5920,300,4119,225
5921,300,4095,174
5922,276,4122,174
5923,348,4122,213
5924,348,4116,198
5925,366,4116,198
5926,366,4092,219
5927,426,4056,219
5928,330,4056,240
5929,330,4080,270
5930,330,4080,270
5931,330,4086,330
5932,336,4074,330
5933,348,4074,351
5934,348,4095,279
5935,297,4095,279
5936,297,4011,219
5937,312,3960,219
5938,288,3960,249
5939,288,3999,189
5940,276,3999,189
5941,276,3993,324
5942,333,3978,324
5943,231,3978,288
5944,231,3969,336
5945,219,3969,336
5946,219,3999,255
5947,306,4062,255
5948,321,4062,228
5949,321,4086,228
5950,336,4086,243
5951,336,4098,249
5952,246,4038,249
5953,255,4038,270
5954,255,4083,270
5955,285,4083,243
5956,285,4164,258
5957,303,4263,258
5958,315,4263,213
5959,315,4266,213
5960,297,4266,258
5961,297,4242,213
5962,192,4251,213
5963,192,4251,183
5964,210,4218,183
5965,285,4218,225
5966,285,4170,138
5967,312,4053,138
5968,312,4053,114
5969,252,3876,114
5970,213,3876,90
5971,213,3774,159
5972,237,3633,159
5973,237,3633,108
5974,231,3681,108
5975,177,3681,99
5976,177,3678,90
5977,195,3672,90
5978,195,3672,18
5979,141,3678,18
5980,90,3678,-27
5981,90,3744,33
5982,93,3870,33
5983,93,3870,-18
5984,27,3978,-18
5985,27,3978,0
5986,27,4011,-96
5987,-33,4011,-96
5988,-33,4089,-123
5989,-114,4197,-123
5990,-120,4197,-102
5991,-120,4302,-78
5992,-87,4302,-78
5993,-87,4407,-81
5994,-102,4533,-81
5995,-84,4533,48
5996,-84,4575,-33
5997,-24,4575,-33
5998,-24,4533,-78
5999,90,4416,-78
6000,201,4416,-63
6001,201,4374,9
6002,234,4374,9
6003,234,4242,45
6004,321,4203,45
6005,345,4203,99
6006,345,4098,219
6007,225,4098,219
6008,225,4035,225
6009,201,3963,225
6010,99,3963,195
6011,99,3927,195
6012,36,3927,195
6013,36,3960,138
6014,-21,4029,138
6015,9,4029,84
6016,9,4050,84
6017,45,4050,-6
6018,45,4113,-72
6019,-27,4098,-72
6020,-60,4098,-42
6021,-60,4077,-42
6022,-63,4077,-36
6023,-63,4098,-81
6024,-27,4083,-81
6025,60,4083,-81
6026,60,4095,-81
6027,-9,4095,3
6028,-9,4062,75
6029,-63,4107,75
6030,-63,4107,60
6031,-132,4080,60
6032,-162,4080,54
6033,-162,4155,93
6034,-171,4230,93
6035,-171,4230,75
6036,-189,4218,75
6037,-231,4218,78
6038,-231,4134,60
6039,-246,4098,60
6040,-246,4098,90
6041,-162,4059,90
6042,90,4059,78
6043,90,4056,63
6044,213,4059,63
6045,213,4059,75
6046,78,4080,75
6047,27,4080,69
6048,27,4074,78
6049,-27,4074,78
6050,-27,4053,93
6051,-81,4059,93
6052,-183,4059,144
6053,-183,4092,120
6054,-267,4092,120
6055,-267,4095,135
6056,-285,4140,135
6057,-177,4140,168
6058,-177,4098,99
6059,-135,4098,99
6060,-135,4059,120
6061,-147,4104,120
6062,-102,4104,63
6063,-102,4101,48
6064,-51,4101,48
6065,-51,4113,0
6066,-12,4110,0
6067,-15,4110,-42
6068,-15,4092,-51
6069,27,4092,-51
6070,27,4065,-27
6071,21,4098,-27
6072,-99,4098,48
6073,-99,4206,48
6074,-108,4206,24
6075,-108,4179,63
6076,-63,4140,63
6077,21,4140,18
6078,21,4134,18
6079,6,4134,24
6080,6,4122,-6
6081,-42,4107,-6
6082,-57,4107,0
6083,-57,4098,0
6084,-42,4098,-18
6085,-42,4113,-6
6086,0,4098,-6
6087,0,4098,24
6088,6,4176,24
6089,-6,4176,30
6090,-6,4128,48
6091,-66,4113,48
6092,-66,4113,60
6093,-78,4098,60
6094,-27,4098,48
6095,-27,4104,-12
6096,-18,4131,-12
6097,-18,4131,15
6098,-24,4140,15
6099,9,4140,-42
6100,9,4113,-21
6101,-48,4056,-21
6102,-48,4056,-63
6103,-81,4143,-63
6104,-75,4143,-12
6105,-75,4164,60
6106,3,4152,60
6107,3,4152,60
6108,18,4140,60
6109,21,4140,24
6110,21,4089,129
6111,-9,4089,129
6112,-9,4095,48
6113,-12,4125,48
6114,3,4125,54
6115,3,4125,3
6116,27,4125,3
6117,27,4122,-63
6118,39,4056,-63
6119,63,4056,0
6120,63,4005,48
6121,0,4005,48
6122,0,4059,-48
6123,-66,4044,-48
6124,-42,4044,0
6125,-42,4059,18
6126,-63,4059,18
6127,-63,4095,63
6128,-75,4101,63
6129,-126,4101,-6
6130,-126,4047,24
6131,-126,4047,24
6132,-126,4017,0
6133,-153,4029,0
6134,-201,4029,54
6135,-201,4101,54
6136,-33,4101,33
6137,-33,4089,39
6138,60,4056,39
6139,-45,4056,-42
6140,-45,4065,-42
6141,-36,4065,-27
6142,-36,4083,-33
6143,33,4116,-33
6144,51,4116,-57
6145,51,4161,-57
6146,57,4161,30
6147,57,4146,-36
6148,120,4107,-36
6149,120,4107,48
6150,123,4122,48
6151,60,4122,54
6152,60,4110,9
6153,60,4104,9
6154,60,4104,54
6155,90,4107,54
6156,57,4107,-132
6157,57,4104,-33
6158,60,4107,-33
6159,60,4107,-33
6160,60,4101,-33
6161,54,4101,9
6162,54,4113,3
6163,30,4107,3
6164,30,4107,-6
6165,51,4131,-6
6166,78,4131,-63
6167,78,4146,33
6168,27,4149,33
6169,27,4149,18
6170,54,4149,18
6171,120,4149,-27
6172,120,4206,-63
6173,138,4206,-63
6174,138,4209,-102
6175,180,4254,-102
6176,279,4254,-57
6177,279,4224,-171
6178,423,4224,-171
6179,423,4167,-72
6180,471,4257,-72
6181,630,4257,0
6182,630,4581,15
6183,921,4581,15
6184,921,4782,78
6185,1320,4845,78
6186,1584,4845,-6
6187,1584,4830,-96
6188,1470,4830,-96
6189,1470,4860,-276
6190,1629,4407,-276
6191,1896,4407,-522
6192,1896,4473,-438
6193,1896,4473,-438
6194,1896,4488,-453
6195,1503,4398,-453
6196,1077,4398,-438
6197,1077,4431,-459
6198,1104,4431,-459
6199,1104,4458,-384
6200,1437,4422,-384
6201,1710,4422,-252
6202,1710,4545,-252
6203,1779,4545,-246
6204,1779,4554,-333
6205,1800,4455,-333
6206,1833,4455,-378
6207,1833,4422,-378
6208,1953,4422,-306
6209,1953,4581,-288
6210,2124,4527,-288
6211,2280,4527,-297
6212,2280,4482,-297
6213,2307,4482,-354
6214,2307,4317,-363
6215,2295,4263,-363
6216,2367,4263,-393
6217,2367,4101,-393
6218,2556,4101,-312
6219,2556,3927,-378
6220,2712,3894,-378
6221,2712,3894,-168
6222,2880,3951,-168
6223,2811,3951,-207
6224,2811,3510,-198
6225,2430,3315,-198
6226,2430,3315,-153
6227,2163,2967,-153
6228,2325,2967,-198
6229,2325,3186,-222
6230,3012,2988,-222
6231,3012,2988,-198
6232,3792,2832,-198
6233,3990,2832,-171
6234,3990,2865,-111
6235,3552,2706,-111
6236,3552,2706,-126
6237,3210,2469,-126
6238,3006,2469,-111
6239,3006,2256,-177
6240,2964,2256,-177
6241,2964,1836,-252
6242,3066,1281,-252
6243,3288,1281,-201
6244,3288,1491,-81
6245,3288,1491,-81
6246,3288,1383,-6
6247,3288,1380,-6
6248,3300,1380,63
6249,3300,1047,159
6250,3351,1047,159
6251,3351,663,150
6252,3264,651,150
6253,3009,651,315
6254,3009,360,339
6255,2775,360,339
6256,2775,81,411
6257,2763,177,411
6258,2742,177,426
6259,2742,-468,486
6260,2604,-468,486
6261,2604,-510,474
6262,2508,-480,474
6263,2364,-480,486
6264,2364,-714,486
6265,2448,-714,474
6266,2448,-690,546
6267,2562,-591,546
6268,2640,-591,531
6269,2640,-636,531
6270,2778,-636,549
6271,2778,-579,516
6272,2934,-516,516
6273,2934,-516,531
6274,3066,-417,531
6275,3162,-417,459
6276,3162,-354,366
6277,3498,3,366
6278,3498,3,399
6279,3591,-126,399
6280,3642,-126,375
6281,3642,-318,330
6282,3630,-150,330
6283,3630,-150,360
6284,3507,-6,360
6285,3756,-6,351
6286,3756,165,303
6287,3756,108,303
6288,3756,108,279
6289,3543,-96,279
6290,3006,-96,234
6291,3006,-255,231
6292,2769,129,231
6293,2769,129,219
6294,2895,345,219
6295,3162,345,360
6296,3162,666,321
6297,3084,861,321
6298,3084,861,339
6299,3036,1359,339
6300,3204,1359,153
6301,3204,1308,75
6302,3243,1308,75
6303,3243,1284,48
6304,3072,1260,48
6305,2802,1260,18
6306,2802,2022,30
6307,3015,2022,30
6308,3015,2466,-186
6309,3246,2454,-186
6310,3444,2454,-192
6311,3444,2481,-261
6312,3384,2481,-261
6313,3384,2355,-207
6314,3195,3018,-207
6315,3312,3018,-237
6316,3312,3168,-228
6317,3432,3168,-228
6318,3432,3225,-246
6319,3300,3165,-246
6320,3048,3165,-282
6321,3048,3171,-267
6322,2946,3171,-267
6323,2946,3477,-123
6324,2790,3531,-123
6325,2694,3531,-171
6326,2694,3660,-171
6327,2610,3660,-102
6328,2610,3654,-108
6329,2523,3525,-108
6330,2427,3525,-51
6331,2427,3621,-51
6332,2355,3621,63
6333,2355,4047,84
6334,2235,4206,84
6335,2112,4206,15
6336,2112,4275,15
6337,1989,4275,78
6338,1989,4173,-12
6339,1779,4122,-12
6340,1779,4122,-21
6341,1725,4173,-21
6342,1641,4173,-93
6343,1641,4200,15
6344,1536,4494,15
6345,1536,4494,120
6346,1353,4473,120
6347,1182,4473,90
6348,1182,4548,45
6349,1098,4626,45
6350,1098,4626,-27
6351,1278,4593,-27
6352,1398,4593,-108
6353,1398,4539,-117
6354,1122,4389,-117
6355,1122,4389,-81
6356,828,4419,-81
6357,879,4419,-102
6358,879,4569,-78
6359,1008,4671,-78
6360,1008,4671,-87
6361,1158,4626,-87
6362,1230,4626,-123
6363,1230,4620,-81
6364,1170,4620,-81
6365,1170,4560,-177
6366,1002,4476,-177
6367,954,4476,-168
6368,954,4410,-198
6369,819,4410,-198
6370,819,4353,-186
6371,756,4314,-186
6372,645,4314,-147
6373,645,4302,-36
6374,573,4302,-36
6375,573,4308,9
6376,492,4218,9
6377,435,4218,90
6378,435,4197,75
6379,312,4197,75
6380,312,4233,219
6381,324,4275,219
6382,318,4275,219
6383,318,4260,219
6384,336,4260,129
6385,336,4257,138
6386,333,4260,138
6387,312,4260,60
6388,312,4212,60
6389,279,4212,99
6390,279,4254,90
6391,180,4194,90
6392,93,4194,93
6393,93,4173,93
6394,-21,4173,135
6395,-21,4155,144
6396,-120,4176,144
6397,-81,4176,153
6398,-81,4131,153
6399,-66,4131,69
6400,-66,4074,108
6401,-15,4113,108
6402,-15,4113,105
6403,-75,4086,105
6404,-96,4086,90
6405,-96,4083,138
6406,-168,4023,138
6407,-168,4023,69
6408,-201,4047,69
6409,-117,4047,93
6410,-117,4011,48
6411,-126,3996,48
6412,-126,3996,63
6413,-99,4065,63
6414,42,4065,18
6415,42,4101,-12
6416,84,4059,-12
6417,84,4059,-18
6418,132,4014,-18
6419,81,4014,0
6420,81,4068,30
6421,57,4140,30
6422,57,4140,-33
6423,-9,4059,-33
6424,3,4059,75
6425,3,4107,30
6426,36,4068,30
6427,36,4068,39
6428,117,4092,39
6429,117,4092,39
6430,117,4098,63
6431,144,4098,63
6432,144,4110,30
6433,126,4125,30
6434,69,4125,-21
6435,69,4119,-6
6436,87,4119,-6
6437,87,4140,60
6438,126,4101,60
6439,162,4101,45
6440,162,4122,-48
6441,120,4122,-48
6442,120,4068,33
6443,87,4032,33
6444,60,4032,60
6445,60,4131,33
6446,81,4131,33
6447,81,4122,114
6448,63,4116,114
6449,114,4116,63
6450,114,4095,33
6451,150,4095,33
6452,150,4056,39
6453,138,4107,39
6454,78,4107,-18
6455,78,4068,-12
6456,27,4068,-12
6457,27,4074,45
6458,-39,4080,45
6459,30,4080,3
6460,30,4131,24
6461,111,4131,24
6462,111,4071,84
6463,96,4122,84
6464,36,4122,18
6465,36,4119,18
6466,-42,4119,18
6467,-42,4086,24
6468,-75,4143,24
6469,-6,4143,33
6470,-6,4125,33
6471,69,4125,30
6472,69,4170,84
6473,129,4167,84
6474,111,4167,0
6475,111,4116,0
6476,54,4116,30
6477,54,4092,48
6478,-42,4116,48
6479,-42,4116,60
6480,9,4107,60
6481,87,4107,30
6482,87,4134,63
6483,39,4092,63
6484,39,4092,123
6485,90,4104,123
6486,141,4104,78
6487,141,4116,15
6488,87,4041,15
6489,87,4041,75
6490,39,4059,75
