sequence,AccelerometerX,AccelerometerY,AccelerometerZ
0,1026,-480,3981
1,1026,-480,3762
2,1149,-375,3762
3,1332,-375,3915
4,1332,-369,3876
5,1299,-366,3876
6,1299,-366,3906
7,1278,-417,3906
8,1266,-417,3840
9,1266,-342,3852
10,1248,-390,3852
11,1248,-390,3927
12,1254,-399,3927
13,1293,-399,3840
14,1293,-384,3840
15,1242,-402,3840
16,1242,-402,3840
17,1158,-417,3840
18,1146,-417,3915
19,1146,-396,3882
20,1278,-420,3882
21,1278,-420,3960
22,1302,-372,3960
23,1278,-372,3876
24,1278,-402,3801
25,1233,-384,3801
26,1233,-384,3882
27,1254,-324,3882
28,1371,-324,3825
29,1371,-279,3930
30,1179,-216,3930
31,1179,-216,3972
32,1041,-264,3972
33,1200,-264,3966
34,1200,-300,3900
35,1491,-300,3900
36,1491,-213,4077
37,609,-330,4077
38,1650,-330,4293
39,1650,513,5118
40,1350,513,5118
41,1350,234,5226
42,2106,78,5226
43,3102,78,5250
44,3102,-90,5049
45,1644,-90,5049
46,1644,-60,4869
47,1059,-237,4869
48,1293,-237,4740
49,1293,-324,4251
50,1899,-324,4251
51,1899,-528,3960
52,2367,-168,3960
53,2199,-168,3795
54,2199,-363,3441
55,2175,-363,3441
56,2175,-756,2697
57,1671,-756,2697
58,1506,-756,1914
59,1506,-702,1242
60,1149,-702,1242
61,1149,999,2124
62,1602,1653,2124
63,1317,1653,2778
64,1317,693,2295
65,1983,693,2295
66,1983,-288,1800
67,2484,24,1800
68,2946,24,1704
69,2946,243,1914
70,3285,243,1914
71,3285,531,2109
72,2067,465,2109
73,747,465,2025
74,747,42,1890
75,-72,42,1890
76,-72,-99,2001
77,-144,393,2001
78,-195,393,2781
79,-195,1503,3576
80,-375,1503,3576
81,-375,2139,3846
82,-45,1770,3846
83,735,1770,3546
84,735,1599,3546
85,867,1599,3153
86,867,2025,3315
87,768,2898,3315
88,561,2898,3684
89,561,3642,3684
90,606,3642,3690
91,606,3531,3579
92,1647,3402,3579
93,2085,3402,3489
94,2085,3636,3489
95,1854,3636,3300
96,1854,3804,3453
97,1164,4533,3453
98,735,4533,3444
99,735,4437,3444
100,846,4437,3132
101,846,4053,2592
102,1161,3726,2592
103,1671,3726,2070
104,1671,3855,2070
105,2463,3855,1929
106,2463,3420,2016
107,2715,3165,2016
108,2127,3165,2046
109,2127,2667,2046
110,1131,2667,1845
111,1131,2508,1839
112,372,2631,1839
113,-12,2631,1728
114,-12,3018,1728
115,-306,3018,1512
116,-306,3690,1473
117,-33,3810,1473
118,213,3810,1362
119,213,4272,1362
120,150,4272,1068
121,150,4677,549
122,510,5025,549
123,510,5025,255
124,1200,5280,255
125,1884,5280,249
126,1884,4881,339
127,1998,4554,339
128,1998,4554,630
129,1938,4659,630
130,1611,4659,795
131,1611,4836,1011
132,1449,4974,1011
133,1449,4974,1233
134,1248,4896,1233
135,651,4896,1428
136,651,4440,1314
137,-78,4035,1314
138,-78,4035,1071
139,-699,3756,1071
140,-930,3756,930
141,-930,3468,801
142,-492,3291,801
143,-492,3291,750
144,177,3204,750
145,699,3204,735
146,699,3243,609
147,744,3276,609
148,744,3276,534
149,615,3339,534
150,609,3339,399
151,609,3282,384
152,696,3318,384
153,696,3318,384
154,813,3504,384
155,612,3504,345
156,612,3552,234
157,306,3540,234
158,306,3540,240
159,243,3633,240
160,348,3633,168
161,348,3906,285
162,510,4443,285
163,510,4443,243
164,681,4575,243
165,777,4575,123
166,777,4779,153
167,882,4848,153
168,882,4848,105
169,1011,4872,105
170,1002,4872,90
171,1002,4830,54
172,867,4662,54
173,867,4662,-12
174,537,4560,-12
175,201,4560,-6
176,201,4599,120
177,-15,4449,120
178,-15,4449,279
179,-6,4149,279
180,75,4149,240
181,75,4005,288
182,93,3891,288
183,93,3891,315
184,12,3927,315
185,-72,3927,285
186,-72,4116,369
187,-42,4116,369
188,-42,4191,390
189,81,4089,390
190,165,4089,294
191,165,3918,255
192,129,3918,255
193,129,3978,264
194,54,4074,264
195,-84,4074,135
196,-84,4143,120
197,-42,4143,120
198,-42,4125,120
199,54,4119,120
200,255,4119,93
201,255,4002,114
202,321,4002,114
203,321,3987,69
204,237,3954,69
205,156,3954,9
206,156,4005,123
207,108,4005,123
208,108,3972,174
209,-27,4098,174
210,0,4098,258
211,0,4050,219
212,48,4050,219
213,48,4020,129
214,60,3915,129
215,-39,3915,210
216,-39,3933,114
217,-120,3933,114
218,-120,3966,105
219,12,3942,105
220,141,3942,75
221,141,3978,60
222,216,3978,60
223,216,3951,90
224,156,4059,90
225,45,4059,75
226,45,4005,69
227,78,4005,69
228,78,3993,123
229,183,3978,123
230,288,3978,135
231,288,4065,114
232,180,4065,114
233,180,4131,120
234,267,4110,120
235,183,4110,120
236,183,4110,30
237,201,4110,30
238,201,4170,45
239,237,4170,45
240,198,4170,-12
241,198,4200,54
242,69,4200,54
243,69,4236,39
244,72,4116,39
245,141,4116,69
246,141,3984,-18
247,210,3984,-18
248,210,3762,-18
249,177,3714,-18
250,93,3714,33
251,93,3747,150
252,105,3747,150
253,105,3795,165
254,-108,3993,165
255,-228,3993,270
256,-228,4056,321
257,-255,4056,321
258,-255,4245,321
259,-216,4446,321
260,-252,4446,144
261,-252,4500,45
262,-45,4500,45
263,-45,4308,54
264,45,4149,54
265,54,4149,-12
266,54,4296,-12
267,141,4296,75
268,141,4302,120
269,168,4341,120
270,117,4341,153
271,117,4401,153
272,-24,4401,198
273,-24,4341,78
274,39,4293,78
275,177,4293,84
276,177,4341,84
277,279,4341,108
278,279,4488,150
279,270,4572,150
280,177,4572,168
281,177,4398,168
282,111,4398,90
283,111,4143,69
284,93,3984,69
285,99,3984,69
286,99,3960,69
287,54,3960,135
288,54,3885,99
289,-72,3903,99
290,-159,3903,90
291,-159,3921,90
292,24,3921,144
293,24,3882,210
294,294,4014,210
295,294,4014,198
296,336,4047,198
297,312,4047,198
298,312,4056,138
299,165,3900,138
300,165,3900,165
301,27,4089,165
302,21,4089,180
303,21,4101,168
304,24,4059,168
305,24,4059,165
306,9,3999,165
307,6,3999,84
308,6,3951,84
309,-15,3984,84
310,-15,3984,48
311,-63,4041,48
312,-93,4041,78
313,-93,4056,75
314,-60,4026,75
315,-60,4026,135
316,87,3990,135
317,129,3990,138
318,129,4035,78
319,39,4074,78
320,39,4074,144
321,-21,4149,144
322,-6,4149,174
323,-6,4200,255
324,81,4182,255
325,81,4182,294
326,156,4119,294
327,27,4119,258
328,27,3996,234
329,-27,4065,234
330,-27,4065,285
331,0,4158,285
332,48,4158,213
333,48,4212,270
334,-6,4101,270
335,-6,4101,285
336,-21,4038,285
337,-12,4038,264
338,-12,4014,219
339,-33,4092,219
340,-33,4092,168
341,-63,4266,168
342,-9,4266,315
343,-9,4218,279
344,-30,4143,279
345,-30,4143,324
346,24,4089,324
347,72,4089,204
348,72,4119,255
349,27,4116,255
350,27,4116,225
351,-45,4032,225
352,27,4032,315
353,27,4032,243
354,-48,4146,243
355,-48,4146,228
356,9,4041,228
357,45,4041,255
358,45,3942,165
359,243,3828,165
360,243,3828,210
361,96,3972,210
362,93,3972,249
363,93,3978,174
364,78,3978,174
365,78,4155,204
366,210,4263,204
367,339,4263,390
368,339,4119,384
369,432,4119,384
370,432,4038,324
371,477,3969,324
372,495,3969,330
373,495,4002,270
374,348,4002,270
375,348,4236,474
376,510,4404,474
377,879,4404,594
378,879,4287,570
379,1185,4287,570
380,1185,4209,501
381,1398,4197,501
382,1503,4197,441
383,1503,4572,651
384,1128,4572,651
385,1128,4710,735
386,1425,4437,735
387,1752,4437,630
388,1752,4278,531
389,1539,4278,531
390,1539,4167,324
391,1455,4356,324
392,1785,4356,369
393,1785,4428,687
394,2076,4428,687
395,2076,4368,675
396,2094,4422,675
397,2454,4422,705
398,2454,4413,705
399,2907,4413,516
400,2907,4296,435
401,3138,4635,435
402,2868,4635,444
403,2868,4812,444
404,2523,4812,429
405,2523,4653,480
406,2682,4548,480
407,3105,4548,570
408,3105,4608,570
409,3567,4608,501
410,3567,4425,360
411,3240,4593,360
412,3072,4593,489
413,3072,4398,489
414,2847,4398,660
415,2847,3915,501
416,2622,3357,501
417,2622,3357,249
418,2928,3555,249
419,3705,3555,210
420,3705,3456,159
421,3759,3318,159
422,3759,3318,159
423,3732,3144,159
424,3663,3144,60
425,3663,2334,54
426,3573,2388,54
427,3573,2388,-36
428,3414,2613,-36
429,2976,2613,3
430,2976,1713,15
431,3033,1359,15
432,3033,1359,-18
433,3030,1383,-18
434,2793,1383,183
435,2793,1131,270
436,2145,594,270
437,2145,594,189
438,1020,-96,189
439,708,-96,300
440,708,-129,279
441,1077,-498,279
442,1077,-498,90
443,1701,-339,90
444,2130,-339,129
445,2130,-393,78
446,2628,-393,78
447,2628,-474,-6
448,2739,-276,-6
449,2952,-276,15
450,2952,-333,30
451,3411,-333,30
452,3411,-528,-66
453,3615,-474,-66
454,3606,-474,-30
455,3606,-438,-42
456,3663,-438,-42
457,3663,-402,45
458,3987,-366,45
459,4257,-366,24
460,4257,-381,-45
461,4128,-381,-45
462,4128,-507,-162
463,4116,-333,-162
464,4143,-333,-171
465,4143,-81,-150
466,4134,-81,-150
467,4134,141,-147
468,4443,-120,-147
469,4584,-120,-216
470,4584,-225,-312
471,4566,-225,-312
472,4566,-93,-303
473,4305,-252,-303
474,4014,-252,-333
475,4014,33,-213
476,3933,33,-213
477,3933,-30,-273
478,4098,-273,-273
479,3930,-273,-306
480,3930,-198,-306
481,3927,-198,-378
482,3927,-225,-348
483,3936,-177,-348
484,3930,-177,-318
485,3930,-42,-318
486,4110,-42,-168
487,4110,3,-216
488,4194,-114,-216
489,4158,-114,-231
490,4158,-141,-231
491,3996,-141,-291
492,3996,-93,-297
493,3933,-78,-297
494,4002,-78,-213
495,4002,132,-213
496,4083,132,-216
497,4083,-12,-201
498,4053,-24,-201
499,4053,-24,-201
500,4041,-141,-201
501,3969,-141,-216
502,3969,-114,-252
503,4047,42,-252
504,4047,42,-222
505,4122,72,-222
506,4104,72,-192
507,4104,30,-213
508,4098,60,-213
509,4098,60,-228
510,4158,-84,-228
511,4143,-84,-387
512,4143,-90,-312
513,4074,-18,-312
514,4074,-18,-291
515,4191,126,-291
516,4299,126,-216
517,4299,87,-78
518,4209,18,-78
519,4209,18,-117
520,4014,-213,-117
521,3759,-213,-126
522,3759,-225,-27
523,3645,-246,-27
524,3645,-246,-12
525,3393,-366,-12
526,3054,-366,108
527,3054,-345,270
528,2793,-165,270
529,2793,-165,321
530,2484,-216,321
531,2232,-216,315
532,2232,-186,186
533,2346,153,186
534,2346,153,225
535,2412,444,225
536,2679,444,168
537,2679,927,279
538,3006,927,279
539,3006,1041,198
540,3312,1308,198
541,3405,1308,54
542,3405,1419,-66
543,3369,1419,-66
544,3369,1473,30
545,3540,1602,30
546,3708,1602,-12
547,3708,2121,60
548,3885,2121,60
549,3885,2229,138
550,3945,2097,138
551,3747,2097,165
552,3747,2079,153
553,3567,2079,153
554,3567,2040,234
555,3576,2217,234
556,3450,2217,324
557,3450,2529,375
558,3480,2529,375
559,3480,2565,456
560,3522,2754,456
561,3294,2754,315
562,3294,2889,198
563,3327,2889,198
564,3327,2850,288
565,3402,2868,288
566,3156,2868,324
567,3156,3096,324
568,2811,3096,336
569,2811,3282,330
570,2676,3333,330
571,2799,3333,315
572,2799,3555,315
573,2745,3555,324
574,2745,3513,198
575,2559,3678,198
576,2418,3678,300
577,2418,3774,300
578,2385,3774,351
579,2385,3879,351
580,2334,3996,351
581,2334,3996,168
582,2124,4167,168
583,2001,4167,279
584,2001,4047,198
585,1854,4011,198
586,1854,4011,195
587,1965,4089,195
588,1965,4089,105
589,1965,4188,99
590,1872,4545,99
591,1872,4545,150
592,1695,4533,150
593,1470,4533,120
594,1470,4341,63
595,1545,4134,63
596,1545,4134,-66
597,1731,4101,-66
598,1695,4101,-27
599,1695,4371,105
600,1422,4620,105
601,1422,4620,330
602,1350,4515,330
603,1176,4515,249
604,1176,4182,225
605,1074,4035,225
606,1074,4035,108
607,960,4233,108
608,993,4233,174
609,993,4482,285
610,984,4524,285
611,984,4524,369
612,957,4473,369
613,1026,4473,345
614,1026,4182,219
615,732,4023,219
616,732,4023,60
617,510,4029,60
618,510,4029,99
619,510,4233,189
620,564,4341,189
621,564,4341,279
622,666,4302,279
623,612,4302,198
624,612,4092,144
625,423,4092,144
626,423,4029,75
627,366,3999,75
628,450,3999,150
629,450,4167,219
630,537,4167,219
631,537,4194,174
632,453,4149,174
633,402,4149,108
634,402,3972,18
635,354,3972,18
636,354,3981,18
637,420,4044,18
638,450,4044,-21
639,450,4074,69
640,456,4074,69
641,456,4047,63
642,375,4062,63
643,450,4062,3
644,450,4035,48
645,441,4035,48
646,441,4047,-12
647,351,4014,-12
648,159,4014,-12
649,159,4080,60
650,111,4080,60
651,111,4101,105
652,144,4110,105
653,237,4110,48
654,237,4017,39
655,279,4017,39
656,279,3993,30
657,288,4017,30
658,249,4017,3
659,249,4161,3
660,279,4161,69
661,279,4191,69
662,282,4116,69
663,372,4116,39
664,372,3987,39
665,333,3987,39
666,333,4023,-21
667,294,4074,-21
668,270,4074,78
669,270,4152,78
670,210,4152,108
671,210,4203,48
672,192,4152,48
673,219,4152,63
674,219,4047,63
675,264,4047,45
676,264,4041,-78
677,351,4023,-78
678,348,4023,-12
679,348,4194,-12
680,354,4194,54
681,354,4239,45
682,333,4131,45
683,333,4131,0
684,99,4137,0
685,129,4137,-42
686,129,4092,15
687,315,4095,15
688,315,4095,3
689,363,4143,3
690,393,4143,15
691,393,4086,33
692,243,4098,33
693,243,4098,48
694,93,4041,48
695,72,4041,69
696,72,3963,-27
697,165,3981,-27
698,165,3981,78
699,207,3984,78
700,219,3984,45
701,219,4062,0
702,198,4122,0
703,198,4122,54
704,174,4086,54
705,60,4086,-78
706,60,4113,-51
707,141,4062,-51
708,141,4062,-117
709,222,4161,-117
710,336,4161,-72
711,336,4113,-33
712,303,4146,-33
713,303,4146,-78
714,333,4122,-78
715,276,4122,-63
716,276,4017,-6
717,174,4080,-6
718,174,4080,3
719,156,4074,3
720,249,4074,-42
721,249,4098,33
722,288,4083,33
723,288,4083,-12
724,213,4074,-12
725,138,4074,48
726,138,4158,63
727,105,4134,63
728,105,4134,3
729,174,4167,3
730,261,4167,0
731,261,4197,78
732,261,4188,78
733,261,4188,75
734,180,4182,75
735,210,4182,114
736,210,4080,135
737,198,4080,135
738,198,3999,159
739,177,3933,159
740,117,3933,168
741,117,3981,198
742,90,3981,198
743,90,4038,108
744,138,4122,108
745,186,4122,138
746,186,4038,69
747,216,4038,69
748,216,4044,90
749,231,4044,90
750,165,4044,3
751,165,4086,-21
752,153,4086,-21
753,153,4080,-81
754,252,4017,-81
755,267,4017,-93
756,267,4071,-78
757,180,4071,-78
758,180,3999,-96
759,123,4041,-96
760,141,4041,-81
761,141,4023,-57
762,192,4023,-57
763,192,4056,-12
764,195,4059,-12
765,213,4059,9
766,213,4044,3
767,198,4044,3
768,198,4065,69
769,225,4053,69
770,249,4053,0
771,249,4059,78
772,333,4059,78
773,333,4137,-18
774,348,4143,-18
775,357,4143,45
776,357,4143,39
777,348,4143,39
778,348,4089,45
779,324,4062,45
780,321,4062,18
781,321,4164,60
782,333,4164,60
783,333,4131,48
784,354,4146,48
785,312,4146,93
786,312,4176,105
787,438,4176,105
788,438,4176,-57
789,567,4116,-57
790,582,4116,18
791,582,4140,18
792,597,4140,63
793,597,4212,63
794,552,4251,63
795,696,4251,-78
796,696,4353,-78
797,852,4353,-102
798,852,4509,-141
799,1062,4380,-141
800,1188,4380,-177
801,1188,4407,-177
802,1434,4407,-327
803,1434,4524,-318
804,1818,4692,-318
805,2247,4692,-303
806,2247,4926,-303
807,1989,4926,-258
808,1989,4815,-363
809,1542,4500,-363
810,1161,4500,-594
811,1161,4278,-594
812,1344,4278,-507
813,1344,4389,-507
814,1695,4530,-507
815,1695,4530,-354
816,1980,4662,-354
817,1980,4662,-384
818,1980,4635,-339
819,1899,4371,-339
820,1899,4371,-303
821,2004,4341,-303
822,1998,4341,-303
823,1998,4065,-252
824,1992,4011,-252
825,1992,4011,-252
826,1875,4038,-252
827,1956,4038,-276
828,1956,4038,-246
829,2244,3855,-246
830,2244,3855,-237
831,2604,3717,-237
832,3003,3717,-372
833,3003,3666,-321
834,3171,3849,-321
835,3171,3849,-303
836,2901,3756,-303
837,2577,3756,-408
838,2577,3450,-423
839,2439,3330,-423
840,2439,3330,-492
841,2730,3282,-492
842,3153,3282,-384
843,3153,3009,-477
844,3204,3024,-477
845,3204,3024,-423
846,3150,3078,-423
847,3192,3078,-432
848,3192,2781,-483
849,3162,2523,-483
850,3162,2523,-498
851,2961,2346,-498
852,2859,2346,-444
853,2859,2415,-402
854,3012,2415,-402
855,3012,2016,-357
856,3393,1818,-357
857,3486,1818,-291
858,3486,1593,-201
859,3024,1593,-201
860,3024,1599,-186
861,2574,1230,-186
862,2703,1230,-198
863,2703,927,-243
864,3141,927,-243
865,3141,978,-96
866,3504,927,-96
867,3627,927,9
868,3627,990,30
869,3471,990,30
870,3471,780,-42
871,3204,561,-42
872,3225,561,-66
873,3225,402,-108
874,3360,402,-108
875,3360,270,-18
876,3360,294,-18
877,3429,294,0
878,3429,168,-18
879,3501,168,-18
880,3501,315,45
881,3510,-18,45
882,3489,-18,60
883,3489,36,54
884,3507,36,54
885,3507,-12,39
886,3567,-144,39
887,3573,-144,69
888,3573,-180,69
889,3447,-180,-36
890,3447,-180,15
891,3435,-36,15
892,3534,-36,33
893,3534,-198,33
894,3675,-198,39
895,3675,-183,-30
896,3600,-150,-30
897,3504,-150,3
898,3504,-150,3
899,3489,-150,-30
900,3489,-126,-12
901,3708,-36,-12
902,3873,-36,-15
903,3873,258,-15
904,3990,258,-93
905,3990,222,-168
906,4065,60,-168
907,3999,60,-237
908,3999,57,-237
909,4059,57,-231
910,4059,159,-216
911,4017,168,-216
912,4050,168,-138
913,4050,168,-138
914,3900,168,-162
915,3900,282,-156
916,3825,258,-156
917,3825,258,-228
918,3807,189,-228
919,3729,189,-96
920,3729,96,-96
921,3672,174,-96
922,3672,174,3
923,3594,516,3
924,3552,516,24
925,3552,429,39
926,3498,291,39
927,3498,291,-72
928,3417,249,-72
929,3360,249,45
930,3360,459,84
931,3312,801,84
932,3312,801,54
933,3591,1026,54
934,3912,1026,-81
935,3912,1341,-96
936,3999,996,-96
937,3999,996,-162
938,3960,924,-162
939,3945,924,-216
940,3945,1239,-153
941,3936,1518,-153
942,3936,1518,-123
943,3882,1389,-123
944,3885,1389,-252
945,3885,1368,-261
946,3963,1503,-261
947,3963,1503,-231
948,4035,1449,-231
949,4056,1449,-237
950,4056,1587,-66
951,4011,1887,-66
952,4011,1887,-162
953,4089,2085,-162
954,3981,2085,-237
955,3981,1818,-198
956,3948,1647,-198
957,3948,1647,-153
958,3852,1809,-153
959,3780,1809,-21
960,3780,1968,-36
961,3675,1686,-36
962,3675,1686,9
963,3522,1758,9
964,3348,1758,78
965,3348,2253,-6
966,3342,2097,-6
967,3342,2097,-132
968,3360,2052,-132
969,3429,2052,-81
970,3429,2289,0
971,3450,2283,0
972,3450,2283,-12
973,3453,2082,-12
974,3225,2082,54
975,3225,2256,123
976,3120,2544,123
977,3120,2544,39
978,3111,2442,39
979,3225,2442,-18
980,3225,2310,-48
981,3255,2550,-48
982,3255,2550,33
983,3192,2709,33
984,3213,2709,24
985,3213,2664,150
986,3183,2718,150
987,3183,2718,138
988,3090,2889,138
989,3111,2889,255
990,3111,2772,258
991,3072,2772,258
992,3072,2754,270
993,2997,2877,270
994,2928,2877,375
995,2928,3138,288
996,2748,3138,288
997,2748,2958,168
998,2730,2772,168
999,2733,2772,165
1000,2733,2964,189
1001,2799,2964,189
1002,2799,3000,354
1003,2730,3342,354
1004,2673,3342,321
1005,2673,3372,351
1006,2589,3372,351
1007,2589,3174,300
1008,2526,3150,300
1009,2424,3150,336
1010,2424,3195,360
1011,2361,3195,360
1012,2361,3360,345
1013,2229,3405,345
1014,2136,3405,315
1015,2136,3333,255
1016,2181,3333,255
1017,2181,3495,345
1018,2190,3372,345
1019,2136,3372,381
1020,2136,3423,465
1021,1974,3423,465
1022,1974,3651,510
1023,1836,3645,510
1024,1692,3645,351
1025,1692,3585,351
1026,1818,3585,336
1027,1818,3432,414
1028,1836,3642,414
1029,1758,3642,600
1030,1758,3930,600
1031,1767,3930,609
1032,1767,4059,480
1033,1803,3921,480
1034,1938,3921,366
1035,1938,3705,366
1036,1869,3705,399
1037,1869,3693,399
1038,1569,3864,399
1039,1296,3864,396
1040,1296,3909,396
1041,1278,3909,354
1042,1278,3894,354
1043,1488,3858,354
1044,1524,3858,549
1045,1524,4050,549
1046,1242,4050,645
1047,1242,4215,666
1048,891,4245,666
1049,870,4245,450
1050,870,4278,450
1051,1227,4278,366
1052,1227,4164,270
1053,1587,4134,270
1054,1533,4134,213
1055,1533,4119,213
1056,1395,4119,180
1057,1395,4065,279
1058,1218,4107,279
1059,1218,4107,279
1060,1248,4188,279
1061,1287,4188,366
1062,1287,4227,309
1063,1164,4068,309
1064,1164,4068,288
1065,1107,4023,288
1066,885,4023,243
1067,885,4041,144
1068,735,4059,144
1069,735,4059,105
1070,684,4008,105
1071,789,4008,84
1072,789,4044,108
1073,852,4098,108
1074,852,4098,105
1075,747,4065,105
1076,666,4065,123
1077,666,4053,90
1078,588,4113,90
1079,588,4113,135
1080,693,4137,135
1081,786,4137,63
1082,786,4110,45
1083,798,4086,45
1084,798,4086,3
1085,609,4023,3
1086,525,4023,54
1087,525,4047,39
1088,537,4098,39
1089,537,4098,150
1090,543,4155,150
1091,525,4155,93
1092,525,4116,84
1093,534,4062,84
1094,534,4062,45
1095,564,4047,45
1096,510,4047,-18
1097,510,4104,-6
1098,378,4188,-6
1099,378,4188,18
1100,432,4206,18
1101,555,4206,54
1102,555,4149,75
1103,651,4086,75
1104,651,4086,99
1105,588,4137,99
1106,321,4137,123
1107,321,4125,129
1108,282,4125,129
1109,282,4170,210
1110,432,4116,210
1111,387,4116,189
1112,387,4059,105
1113,366,4059,105
1114,366,3990,30
1115,300,3909,30
1116,267,3909,0
1117,267,3936,15
1118,267,3936,15
1119,267,4104,93
1120,357,4200,93
1121,522,4200,168
1122,522,4140,108
1123,537,4140,108
1124,537,4086,63
1125,345,4038,63
1126,210,4038,-18
1127,210,4014,24
1128,231,4014,24
1129,231,4110,30
1130,333,4185,30
1131,453,4185,150
1132,453,4215,60
1133,381,4215,60
1134,381,4173,-12
1135,297,4131,-12
1136,318,4131,-33
1137,318,4086,15
1138,297,4086,15
1139,297,4140,9
1140,261,4173,9
1141,324,4173,15
1142,324,4140,-6
1143,309,4140,-6
1144,309,4017,3
1145,228,3963,3
1146,210,3963,0
1147,210,3987,-81
1148,201,3987,-81
1149,201,4044,3
1150,216,4110,3
1151,288,4110,75
1152,288,4011,45
1153,330,4011,45
1154,330,4089,15
1155,303,4098,15
1156,225,4098,69
1157,225,4053,69
1158,201,4053,-48
1159,201,4002,-81
1160,300,4035,-81
1161,417,4035,-33
1162,417,4017,-33
1163,417,4017,69
1164,417,4086,48
1165,363,4131,48
1166,156,4131,135
1167,156,4116,135
1168,126,4116,99
1169,126,4068,78
1170,270,4014,78
1171,357,4014,63
1172,357,4008,63
1173,354,4008,114
1174,354,4143,129
1175,243,4104,129
1176,270,4104,210
1177,270,4131,210
1178,300,4131,153
1179,300,4116,165
1180,333,4212,165
1181,333,4212,204
1182,375,4176,204
1183,381,4176,159
1184,381,4074,204
1185,363,4020,204
1186,363,4020,195
1187,324,4005,195
1188,315,4005,234
1189,315,4146,180
1190,321,4182,180
1191,321,4182,183
1192,336,4215,183
1193,285,4215,153
1194,285,4149,138
1195,267,4131,138
1196,267,4131,138
1197,261,4095,138
1198,303,4095,90
1199,303,3999,135
1200,285,4104,135
1201,285,4104,63
1202,261,4074,63
1203,339,4074,105
1204,339,4089,99
1205,363,3957,99
1206,363,3957,105
1207,195,3993,105
1208,147,3993,198
1209,147,4068,189
1210,129,4053,189
1211,129,4053,213
1212,183,4035,213
1213,393,4035,195
1214,393,3915,144
1215,459,3951,144
1216,459,3951,135
1217,369,4080,135
1218,147,4080,90
1219,147,4041,-12
1220,-27,4011,-12
1221,-27,4011,-21
1222,0,4101,-21
1223,57,4101,-18
1224,57,4299,39
1225,72,4428,39
1226,72,4428,-6
1227,24,4242,-6
1228,-78,4242,-63
1229,-78,3876,-192
1230,-102,3876,-192
1231,-102,3675,-93
1232,-33,3621,-93
1233,87,3621,-36
1234,87,3732,99
1235,144,3732,99
1236,144,3999,93
1237,81,4125,93
1238,-75,4125,63
1239,-75,4233,93
1240,-114,4233,93
1241,-114,4395,15
1242,-120,4635,15
1243,-51,4635,-6
1244,-51,4605,-123
1245,-105,4605,-123
1246,-105,4449,-156
1247,-111,4347,-156
1248,-171,4347,-138
1249,-171,4365,-51
1250,-69,4365,-51
1251,-69,4284,69
1252,69,4137,69
1253,138,4137,168
1254,138,4146,279
1255,297,4146,279
1256,297,4092,420
1257,312,4134,420
1258,261,4134,360
1259,261,4152,396
1260,183,4152,396
1261,183,4047,273
1262,147,3903,273
1263,210,3903,234
1264,210,3879,198
1265,288,3879,198
1266,288,3855,210
1267,441,3969,210
1268,483,3969,330
1269,483,4203,384
1270,426,4203,384
1271,426,4338,381
1272,312,4209,381
1273,219,4209,360
1274,219,4074,360
1275,264,4074,375
1276,264,3939,285
1277,297,3834,285
1278,366,3834,288
1279,366,3726,288
1280,228,3726,249
1281,228,3810,294
1282,168,3915,294
1283,3,3915,303
1284,3,3945,303
1285,-48,3945,330
1286,-48,3897,249
1287,-15,3849,249
1288,-45,3849,204
1289,-45,3978,204
1290,48,3978,228
1291,48,4056,219
1292,-15,3891,219
1293,-183,3891,213
1294,-183,3648,213
1295,-333,3648,243
1296,-333,3717,255
1297,-291,3870,255
1298,-63,3870,351
1299,-63,4035,351
1300,-21,4035,234
1301,-21,4116,225
1302,-135,3984,225
1303,-135,3984,39
1304,-285,3954,39
1305,-312,3954,-171
1306,-312,3963,-57
1307,-117,4104,-57
1308,-117,4104,-48
1309,-12,4197,-48
1310,-45,4197,39
1311,-45,4290,-33
1312,-15,4362,-33
1313,-15,4362,0
1314,81,4389,0
1315,207,4389,30
1316,207,4575,15
1317,261,4677,15
1318,261,4677,120
1319,267,4623,120
1320,192,4623,108
1321,192,4395,48
1322,174,4146,48
1323,174,4146,54
1324,234,4005,54
1325,300,4005,24
1326,300,3945,90
1327,351,3963,90
1328,351,3963,114
1329,234,4014,114
1330,228,4014,108
1331,228,4005,105
1332,276,3987,105
1333,276,3987,48
1334,219,3996,48
1335,141,3996,9
1336,141,4062,-21
1337,132,4089,-21
1338,132,4089,63
1339,9,4305,63
1340,6,4305,60
1341,6,4326,-81
1342,-36,4131,-81
1343,-36,4131,-63
1344,-105,3966,-63
1345,-153,3966,0
1346,-153,3891,-27
1347,-120,3942,-27
1348,-120,3942,48
1349,-246,4029,48
1350,-237,4029,168
1351,-237,4032,204
1352,-144,3981,204
1353,-144,3981,90
1354,126,3930,90
1355,255,3930,78
1356,255,4023,-33
1357,339,4089,-33
1358,339,4089,-6
1359,330,4152,-6
1360,333,4152,0
1361,333,4122,0
1362,237,4086,0
1363,237,4086,63
1364,228,4104,63
1365,156,4104,93
1366,156,4116,15
1367,-30,4140,15
1368,-30,4140,93
1369,-240,4113,93
1370,-279,4113,18
1371,-279,4140,-57
1372,-204,4140,-57
1373,-204,4140,-18
1374,-129,4032,-18
1375,-180,4032,-141
1376,-180,4149,-93
1377,-282,4149,-93
1378,-282,4110,-81
1379,-225,4113,-81
1380,-198,4113,3
1381,-198,4080,-21
1382,-303,4080,-21
1383,-303,4221,78
1384,-366,4161,78
1385,-264,4161,123
1386,-264,4116,60
1387,-180,4116,60
1388,-180,4116,39
1389,-84,4119,39
1390,3,4119,-6
1391,3,4095,30
1392,126,4095,30
1393,126,4149,-48
1394,111,4095,-48
1395,90,4095,-51
1396,90,4146,-6
1397,-69,4146,-6
1398,-69,4176,-102
1399,-30,4110,-102
1400,3,4110,15
1401,3,4068,33
1402,-9,4068,33
1403,-9,4062,-111
1404,-51,4095,-111
1405,36,4095,18
1406,36,4047,18
1407,87,4047,-36
1408,87,4044,-78
1409,120,4158,-78
1410,117,4158,15
1411,117,4131,15
1412,333,4131,-126
1413,333,4350,-72
1414,480,4377,-72
1415,624,4377,-48
1416,624,4236,-48
1417,729,4236,3
1418,729,4134,-168
1419,744,4275,-168
1420,834,4275,-72
1421,834,4398,-72
1422,822,4398,0
1423,822,4554,-81
1424,861,4524,-81
1425,861,4524,-186
1426,1068,4512,-186
1427,1344,4512,-186
1428,1344,4554,-123
1429,1728,4683,-123
1430,1728,4683,-183
1431,1743,4710,-183
1432,1212,4710,-213
1433,1212,4602,-273
1434,783,4422,-273
1435,783,4422,-303
1436,825,4338,-303
1437,1197,4338,-258
1438,1197,4470,-177
1439,1722,4710,-177
1440,1722,4710,-141
1441,2043,4806,-141
1442,2307,4806,-21
1443,2307,4866,-33
1444,2268,4668,-33
1445,2268,4668,-153
1446,2076,4359,-153
1447,1803,4359,-87
1448,1803,4242,-228
1449,1644,4257,-228
1450,1644,4257,-183
1451,1860,4356,-183
1452,2265,4356,-243
1453,2265,4371,-273
1454,2619,4176,-273
1455,2619,4176,-321
1456,2727,3966,-321
1457,2766,3966,-216
1458,2766,4083,-213
1459,2730,4059,-213
1460,2730,4059,-228
1461,2808,3861,-228
1462,3075,3861,-318
1463,3075,3558,-297
1464,3369,3558,-297
1465,3369,3417,-207
1466,3468,3252,-207
1467,3258,3252,-273
1468,3258,3111,-297
1469,3030,3111,-297
1470,3030,2799,-276
1471,2832,2526,-276
1472,2853,2526,-213
1473,2853,2487,-258
1474,3168,2487,-258
1475,3168,2475,-156
1476,3366,2064,-156
1477,3516,2064,-93
1478,3516,1725,-153
1479,3039,1725,-153
1480,3039,1125,-267
1481,2778,1206,-267
1482,2841,1206,-288
1483,2841,945,-468
1484,3264,945,-468
1485,3264,921,-423
1486,3540,636,-423
1487,3729,636,-291
1488,3729,192,-408
1489,3861,192,-408
1490,3861,330,-291
1491,3624,243,-291
1492,3360,243,-297
1493,3360,-153,-237
1494,2985,-153,-237
1495,2985,-456,-201
1496,2826,-522,-201
1497,2844,-522,-156
1498,2844,-540,-120
1499,2685,-540,-120
1500,2685,-858,-21
1501,2760,-972,-21
1502,2802,-972,54
1503,2802,-813,108
1504,2931,-813,108
1505,2931,-852,228
1506,3090,-960,228
1507,3051,-960,195
1508,3051,-957,243
1509,3024,-957,243
1510,3024,-1017,273
1511,2952,-1098,273
1512,2973,-1098,225
1513,2973,-1008,219
1514,3255,-1008,219
1515,3255,-903,198
1516,3255,-1059,198
1517,3261,-1059,183
1518,3261,-1113,183
1519,3345,-1113,75
1520,3345,-771,45
1521,3471,-624,45
1522,3525,-624,-15
1523,3525,-657,-15
1524,3633,-657,-33
1525,3633,-732,-117
1526,3654,-777,-117
1527,3627,-777,-78
1528,3627,-741,-78
1529,3606,-741,60
1530,3606,-549,-60
1531,3504,-315,-60
1532,3240,-315,-105
1533,3240,-492,-105
1534,3255,-492,-117
1535,3255,-318,-36
1536,3447,-141,-36
1537,3447,-141,-27
1538,3810,345,-27
1539,3996,345,-66
1540,3996,387,-183
1541,3927,525,-183
1542,3927,525,-156
1543,3852,246,-156
1544,4014,246,-252
1545,4014,687,-243
1546,4068,522,-243
1547,4068,522,-291
1548,3951,867,-291
1549,3771,867,-228
1550,3771,858,-261
1551,3828,888,-261
1552,3828,888,-282
1553,3930,1401,-282
1554,3999,1401,-357
1555,3999,1161,-306
1556,4068,1236,-306
1557,4068,1236,-312
1558,3879,1128,-312
1559,3687,1128,-288
1560,3687,1440,-258
1561,3687,1917,-258
1562,3687,1917,-312
1563,3981,1965,-312
1564,4002,1965,-273
1565,4002,1830,-231
1566,3783,1707,-231
1567,3783,1707,-198
1568,3576,1824,-198
1569,3534,1824,-102
1570,3534,2115,63
1571,3630,2115,63
1572,3630,2358,153
1573,3504,2229,153
1574,3315,2229,63
1575,3315,2103,3
1576,3111,2103,3
1577,3111,2061,-51
1578,2982,2010,-51
1579,2949,2010,78
1580,2949,2529,228
1581,2937,2529,228
1582,2937,2745,234
1583,2742,2682,234
1584,2658,2682,180
1585,2658,2757,99
1586,2844,2757,99
1587,2844,3063,123
1588,3147,3339,123
1589,3096,3339,15
1590,3096,3258,99
1591,3018,3258,99
1592,3018,3423,18
1593,3093,3573,18
1594,3210,3573,9
1595,3210,3933,15
1596,3156,3933,15
1597,3156,3759,60
1598,3072,3630,60
1599,2835,3630,-12
1600,2835,3534,39
1601,2643,3534,39
1602,2643,3426,84
1603,2523,3609,84
1604,2418,3609,105
1605,2418,3657,69
1606,2310,3657,69
1607,2310,3486,-12
1608,2238,3522,-12
1609,2070,3522,69
1610,2070,3546,120
1611,1938,3546,120
1612,1938,3564,78
1613,1707,3501,78
1614,1494,3501,39
1615,1494,3612,-48
1616,1164,3612,-48
1617,1164,3519,-48
1618,1062,3558,-48
1619,1068,3558,-48
1620,1068,3714,-48
1621,1005,3714,-57
1622,1005,3804,48
1623,846,3894,48
1624,870,3894,-33
1625,870,4053,-33
1626,975,4053,69
1627,975,4194,69
1628,924,4347,69
1629,939,4347,93
1630,939,4464,93
1631,1035,4464,114
1632,1035,4599,84
1633,1095,4665,84
1634,1155,4665,48
1635,1155,4692,48
1636,1128,4692,-36
1637,1128,4734,-21
1638,1089,4659,-21
1639,1020,4659,-66
1640,1020,4566,-66
1641,900,4566,-72
1642,900,4455,-111
1643,846,4446,-111
1644,810,4446,-96
1645,810,4428,-96
1646,939,4428,-93
1647,939,4371,-36
1648,882,4293,-36
1649,741,4293,-72
1650,741,4218,-72
1651,603,4218,-81
1652,603,4206,3
1653,699,4143,3
1654,660,4143,45
1655,660,4155,45
1656,657,4155,0
1657,657,4248,-6
1658,369,4188,-6
1659,225,4188,-36
1660,225,4167,-36
1661,291,4167,-48
1662,291,4080,-57
1663,441,4008,-57
1664,441,4008,-108
1665,543,4173,-108
1666,402,4173,-36
1667,402,4245,-33
1668,111,4140,-33
1669,111,4140,-48
1670,18,4068,-48
1671,57,4068,-93
1672,57,3972,-57
1673,207,3996,-57
1674,207,3996,-57
1675,312,4098,-57
1676,324,4098,33
1677,324,4116,18
1678,198,4020,18
1679,198,4020,33
1680,150,3963,33
1681,216,3963,63
1682,216,3963,60
1683,228,4092,60
1684,228,4092,30
1685,228,4059,30
1686,69,4059,15
1687,69,4074,-51
1688,72,4017,-51
1689,72,4017,-12
1690,261,4047,-12
1691,354,4047,60
1692,354,4095,15
1693,372,4200,15
1694,372,4200,48
1695,234,4161,48
1696,126,4161,-6
1697,126,4080,-21
1698,138,4092,-21
1699,138,4092,18
1700,300,4134,18
1701,423,4134,78
1702,423,4143,54
1703,345,4116,54
1704,345,4116,48
1705,213,4053,48
1706,165,4053,-57
1707,165,4053,33
1708,231,4053,33
1709,231,3981,153
1710,351,4050,153
1711,330,4050,45
1712,330,4107,48
1713,246,4107,48
1714,246,4050,-6
1715,198,4095,-6
1716,195,4095,-12
1717,195,4086,69
1718,216,4086,69
1719,216,4098,48
1720,123,4140,48
1721,108,4140,30
1722,108,4149,-33
1723,114,4149,-33
1724,114,4110,45
1725,216,4134,45
1726,282,4134,33
1727,282,4164,45
1728,276,4164,45
1729,276,4194,75
1730,192,4209,75
1731,111,4209,-12
1732,111,4134,69
1733,24,4134,69
1734,24,3996,69
1735,6,3921,69
1736,78,3921,90
1737,78,4017,174
1738,114,4017,174
1739,114,4044,144
1740,180,3999,144
1741,177,3999,150
1742,177,3993,144
1743,132,3993,144
1744,132,4032,45
1745,117,4161,45
1746,18,4161,150
1747,18,4167,150
1748,45,4167,93
1749,45,4098,39
1750,60,4134,39
1751,165,4134,30
1752,165,4164,30
1753,210,4164,60
1754,210,4209,99
1755,177,4188,99
1756,186,4188,129
1757,186,4122,129
1758,225,4122,90
1759,225,4083,105
1760,201,4062,105
1761,147,4062,198
1762,147,4122,198
1763,108,4122,198
1764,108,4110,228
1765,90,4107,228
1766,90,4107,228
1767,96,4119,228
1768,156,4119,150
1769,156,4059,150
1770,186,4056,150
1771,186,4056,168
1772,126,4089,168
1773,78,4089,180
1774,78,4110,165
1775,111,4065,165
1776,111,4065,150
1777,177,4071,150
1778,132,4071,129
1779,132,4107,90
1780,12,4080,90
1781,12,4080,114
1782,12,4053,114
1783,42,4053,63
1784,42,4089,105
1785,138,4116,105
1786,138,4116,108
1787,75,4116,108
1788,96,4116,45
1789,96,4101,99
1790,141,4125,99
1791,141,4125,120
1792,105,4134,120
1793,159,4134,105
1794,159,4110,93
1795,147,4110,93
1796,147,4122,120
1797,90,4059,120
1798,129,4059,78
1799,129,4017,213
1800,150,4017,213
1801,150,4185,198
1802,174,4119,198
1803,129,4119,225
1804,129,4101,168
1805,27,4101,168
1806,27,4029,153
1807,45,4047,153
1808,81,4047,153
1809,81,4053,120
1810,144,4053,120
1811,144,4098,150
1812,87,4134,150
1813,105,4134,150
1814,105,4122,165
1815,87,4122,165
1816,87,4098,105
1817,114,4074,105
1818,105,4074,180
1819,105,4047,135
1820,27,4047,135
1821,27,4017,138
1822,57,3969,138
1823,141,3969,48
1824,141,4035,120
1825,207,4035,120
1826,207,4101,99
1827,117,4122,99
1828,78,4122,168
1829,78,4095,168
1830,123,4095,63
1831,123,4086,84
1832,180,4080,84
1833,123,4080,84
1834,123,4101,84
1835,90,4101,69
1836,90,4098,84
1837,114,4137,84
1838,117,4137,84
1839,117,4158,84
1840,108,4158,93
1841,108,4092,48
1842,93,4035,48
1843,78,4035,54
1844,78,4062,54
1845,36,4062,123
1846,36,4161,168
1847,75,4107,168
1848,123,4107,99
1849,123,4119,99
1850,117,4119,150
1851,117,4110,174
1852,75,4122,174
1853,24,4122,165
1854,24,4107,165
1855,96,4107,183
1856,96,4089,165
1857,183,4170,165
1858,183,4170,255
1859,168,4194,255
1860,237,4194,234
1861,237,4035,105
1862,207,3927,105
1863,207,3927,93
1864,-45,3984,93
1865,-6,3984,78
1866,-6,3984,78
1867,159,4053,78
1868,159,4053,63
1869,207,4161,63
1870,129,4161,3
1871,129,4131,105
1872,54,4035,105
1873,54,4035,18
1874,45,4059,18
1875,78,4059,60
1876,78,4155,135
1877,99,4146,135
1878,99,4146,120
1879,57,4092,120
1880,75,4092,33
1881,75,4041,84
1882,60,4011,84
1883,60,4011,48
1884,45,4074,48
1885,60,4074,84
1886,60,4071,63
1887,-27,4161,63
1888,-27,4161,30
1889,-42,4116,30
1890,60,4116,120
1891,60,4041,39
1892,114,4041,39
1893,114,4041,99
1894,75,4029,99
1895,36,4029,84
1896,36,4074,114
1897,78,4146,114
1898,78,4146,120
1899,99,4188,120
1900,132,4188,159
1901,132,4161,105
1902,129,4161,105
1903,129,4062,78
1904,63,4110,78
1905,105,4110,105
1906,105,4122,63
1907,129,4122,63
1908,129,4155,45
1909,141,4113,45
1910,111,4113,108
1911,111,4080,84
1912,54,4080,84
1913,54,4047,120
1914,45,4065,120
1915,108,4065,84
1916,108,4080,54
1917,111,4080,54
1918,111,4176,114
1919,90,4146,114
1920,108,4146,105
1921,108,4062,54
1922,117,4062,54
1923,117,4035,69
1924,81,4107,69
1925,81,4107,144
1926,81,4101,105
1927,81,4101,105
1928,81,4089,114
1929,72,4074,114
1930,78,4074,99
1931,78,4080,63
1932,36,4080,63
1933,36,4140,159
1934,48,4119,159
1935,81,4119,33
1936,81,4116,33
1937,87,4116,9
1938,87,4086,114
1939,114,4131,114
1940,174,4131,90
1941,174,4089,90
1942,210,4089,93
1943,210,4152,90
1944,228,4173,90
1945,330,4173,-6
1946,330,4164,-6
1947,501,4164,-36
1948,501,4317,210
1949,696,4347,210
1950,639,4347,-27
1951,639,4326,-27
1952,837,4326,15
1953,837,4284,9
1954,813,4425,9
1955,813,4425,-96
1956,855,4377,-96
1957,930,4377,-48
1958,930,4299,-66
1959,1059,4299,-66
1960,1059,4299,-111
1961,1338,4302,-111
1962,1572,4302,-18
1963,1572,4461,90
1964,1734,4503,90
1965,1734,4503,90
1966,1836,4560,90
1967,2160,4560,189
1968,2160,4725,270
1969,2247,4815,270
1970,2247,4815,93
1971,1923,4581,93
1972,1740,4581,114
1973,1740,4464,30
1974,1656,4353,30
1975,1656,4353,9
1976,1923,4224,9
1977,2211,4224,135
1978,2211,4269,315
1979,2142,4440,315
1980,2142,4440,375
1981,1728,4314,375
1982,1803,4314,369
1983,1803,4107,288
1984,2070,3957,288
1985,2070,3957,405
1986,2457,3933,405
1987,2835,3933,474
1988,2835,4338,561
1989,3141,4266,561
1990,3141,4266,489
1991,3483,4098,489
1992,3498,4098,441
1993,3498,3543,285
1994,3207,3543,285
1995,3207,3387,285
1996,3159,3375,285
1997,3465,3375,303
1998,3465,3474,375
1999,3693,3474,375
2000,3693,3153,339
2001,3501,2841,339
2002,3315,2841,429
2003,3315,2736,441
2004,3558,2736,441
2005,3558,2643,396
2006,3696,2238,396
2007,3693,2238,420
2008,3693,2100,471
2009,3558,2100,471
2010,3558,1803,459
2011,3561,1656,459
2012,3327,1656,471
2013,3327,1299,369
2014,2964,1299,369
2015,2964,1161,564
2016,2937,1047,564
2017,2670,1047,561
2018,2670,378,471
2019,2589,378,471
2020,2589,135,450
2021,2631,-51,450
2022,2937,-51,555
2023,2937,-87,570
2024,3060,-87,570
2025,3060,-234,636
2026,3060,-333,636
2027,2853,-333,702
2028,2853,-642,690
2029,2298,-642,690
2030,2298,-1017,726
2031,2265,-1212,726
2032,2199,-1212,711
2033,2199,-1302,732
2034,2166,-1302,732
2035,2166,-1398,780
2036,2214,-1383,780
2037,2304,-1383,930
2038,2304,-1353,930
2039,2301,-1353,915
2040,2301,-1380,780
2041,2394,-1521,780
2042,2259,-1521,771
2043,2259,-1587,771
2044,2166,-1587,720
2045,2166,-1452,792
2046,2172,-1299,792
2047,2406,-1299,711
2048,2406,-1158,711
2049,2280,-1158,741
2050,2280,-1254,795
2051,2439,-1089,795
2052,2739,-1089,702
2053,2739,-786,702
2054,2871,-786,690
2055,2871,-621,657
2056,3093,-504,657
2057,3093,-504,681
2058,3075,-363,681
2059,3072,-363,696
2060,3072,-66,747
2061,3432,300,747
2062,3432,300,726
2063,3480,288,726
2064,3522,288,630
2065,3522,552,645
2066,3672,960,645
2067,3672,960,621
2068,3672,885,621
2069,3423,885,471
2070,3423,780,480
2071,3864,1482,480
2072,3864,1482,486
2073,3831,1881,486
2074,3870,1881,606
2075,3870,2016,600
2076,3936,1815,600
2077,3936,1815,570
2078,3930,1632,570
2079,4014,1632,474
2080,4014,1860,405
2081,3888,2316,405
2082,3888,2316,426
2083,3729,2460,426
2084,3414,2460,336
2085,3414,2439,414
2086,3507,2391,414
2087,3507,2391,525
2088,3522,2439,525
2089,3468,2439,579
2090,3468,2745,657
2091,3072,2664,657
2092,3072,2664,579
2093,2766,2739,579
2094,2592,2739,534
2095,2592,3033,732
2096,2622,3117,732
2097,2622,3117,846
2098,2871,3315,846
2099,2877,3315,786
2100,2877,3483,750
2101,2796,3483,750
2102,2796,3492,660
2103,2607,3501,660
2104,2451,3501,711
2105,2451,3819,807
2106,2403,3819,807
2107,2403,4110,870
2108,2508,4155,870
2109,2607,4155,795
2110,2607,3915,915
2111,2490,3915,915
2112,2490,3888,1032
2113,1974,4050,1032
2114,1710,4050,927
2115,1710,4269,1032
2116,1692,4269,1032
2117,1692,4401,993
2118,1902,4248,993
2119,1935,4248,981
2120,1935,4101,747
2121,1578,4101,747
2122,1578,3951,585
2123,1197,3747,585
2124,1185,3747,615
2125,1185,4068,750
2126,1374,4068,750
2127,1374,4455,891
2128,1626,4653,891
2129,1734,4653,750
2130,1734,4560,666
2131,1542,4560,666
2132,1542,4341,414
2133,1323,4215,414
2134,1389,4215,351
2135,1389,4140,138
2136,1314,4140,138
2137,1314,4272,225
2138,1473,4263,225
2139,1491,4263,375
2140,1491,4302,336
2141,1107,4302,336
2142,1107,4176,330
2143,681,4071,330
2144,432,4071,288
2145,432,3972,324
2146,489,3972,324
2147,489,4047,360
2148,579,4134,360
2149,651,4134,369
2150,651,4176,390
2151,579,4176,390
2152,579,4161,336
2153,519,4185,336
2154,489,4185,270
2155,489,4149,270
2156,543,4149,270
2157,543,4155,243
2158,486,4155,243
2159,474,4155,240
2160,474,4140,390
2161,417,4140,390
2162,417,4137,330
2163,297,4221,330
2164,312,4221,465
2165,312,4134,360
2166,321,4134,360
2167,321,4035,273
2168,294,4044,273
2169,336,4044,336
2170,336,4017,360
2171,234,4017,360
2172,234,3990,309
2173,243,4068,309
2174,159,4068,339
2175,159,4050,324
2176,165,4050,324
2177,165,4035,396
2178,267,4107,396
2179,336,4107,336
2180,336,4032,336
2181,168,4032,429
2182,168,4107,399
2183,117,4095,399
2184,114,4095,465
2185,114,4071,465
2186,216,4071,336
2187,216,4062,294
2188,405,4080,294
2189,492,4080,303
2190,492,4167,303
2191,354,4167,255
2192,354,4053,210
2193,108,4050,210
2194,129,4050,243
2195,129,4074,243
2196,294,4074,339
2197,294,4065,309
2198,363,4134,309
2199,354,4134,300
2200,354,4086,300
2201,183,4086,240
2202,183,4047,270
2203,174,4005,270
2204,252,4005,204
2205,252,3972,204
2206,267,3972,219
2207,267,4047,264
2208,237,4092,264
2209,297,4092,225
2210,297,4071,225
2211,333,4071,210
2212,333,4062,204
2213,243,4047,204
2214,243,4047,150
2215,207,4053,150
2216,159,4053,279
2217,159,4062,213
2218,210,4056,213
2219,210,4056,270
2220,270,4089,270
2221,375,4089,249
2222,375,4041,228
2223,276,4101,228
2224,276,4101,255
2225,255,4017,255
2226,294,4017,258
2227,294,4041,249
2228,231,4089,249
2229,231,4089,240
2230,243,4113,240
2231,237,4113,264
2232,237,4038,204
2233,252,4110,204
2234,252,4110,273
2235,252,4104,273
2236,369,4104,279
2237,369,4092,294
2238,279,4149,294
2239,279,4149,303
2240,249,4089,303
2241,201,4089,303
2242,201,4071,270
2243,243,4068,270
2244,243,4068,336
2245,282,4122,336
2246,306,4122,366
2247,306,4191,309
2248,300,4125,309
2249,300,4125,345
2250,174,4047,345
2251,129,4047,270
2252,129,4074,273
2253,246,4065,273
2254,246,4065,270
2255,198,4116,270
2256,201,4116,225
2257,201,4125,255
2258,297,4125,255
2259,297,4095,243
2260,297,4083,243
2261,267,4083,213
2262,267,4074,240
2263,225,4074,240
2264,225,4053,180
2265,198,4017,180
2266,156,4017,183
2267,156,4089,219
2268,264,4089,219
2269,264,4101,243
2270,339,4107,243
2271,294,4107,144
2272,294,4038,213
2273,195,4038,213
2274,195,4062,210
2275,243,4008,210
2276,297,4008,168
2277,297,4044,204
2278,324,4044,204
2279,324,4047,195
2280,270,4086,195
2281,174,4086,189
2282,174,4062,213
2283,225,4062,213
2284,225,4014,213
2285,237,4050,213
2286,282,4050,204
2287,282,4140,93
2288,264,4140,93
2289,264,4080,129
2290,192,4047,129
2291,183,4047,189
2292,183,4065,234
2293,159,4065,234
2294,159,4083,303
2295,252,4062,303
2296,294,4062,249
2297,294,4119,174
2298,252,4119,174
2299,252,4107,234
2300,252,4080,234
2301,231,4080,153
2302,231,4053,180
2303,255,4053,180
2304,255,4074,195
2305,285,4110,195
2306,228,4110,234
2307,228,4101,204
2308,195,4101,204
2309,195,4101,249
2310,210,4080,249
2311,216,4080,249
2312,216,4056,228
2313,192,4056,228
2314,192,4134,294
2315,255,4029,294
2316,219,4029,129
2317,219,3999,189
2318,228,3999,189
2319,228,4056,240
2320,213,4074,240
2321,228,4074,234
2322,228,4086,234
2323,264,4086,150
2324,264,4044,225
2325,231,4035,225
2326,207,4035,123
2327,207,4065,123
2328,207,4065,120
2329,207,4092,204
2330,276,4113,204
2331,294,4113,183
2332,294,4080,183
2333,285,4080,219
2334,285,4083,198
2335,243,4050,198
2336,219,4050,120
2337,219,4098,120
2338,294,4098,165
2339,294,4092,168
2340,282,4125,168
2341,282,4125,219
2342,216,4104,219
2343,303,4104,195
2344,303,4116,150
2345,162,4182,150
2346,162,4182,210
2347,228,4002,210
2348,228,4002,93
2349,228,4086,240
2350,267,4047,240
2351,267,4047,249
2352,210,4095,249
2353,243,4095,189
2354,243,4074,189
2355,255,4083,189
2356,255,4083,189
2357,264,4101,189
2358,264,4101,243
2359,264,4068,228
2360,234,4098,228
2361,234,4098,183
2362,213,4110,183
2363,147,4110,249
2364,147,4098,240
2365,210,4020,240
2366,210,4020,204
2367,234,4062,204
2368,225,4062,180
2369,225,4092,114
2370,246,4101,114
2371,246,4101,174
2372,234,4056,174
2373,225,4056,180
2374,225,4161,336
2375,234,4284,336
2376,234,4284,330
2377,471,4293,330
2378,279,4293,264
2379,279,4221,63
2380,354,4479,63
2381,354,4479,450
2382,513,4113,450
2383,543,4113,594
2384,543,3990,480
2385,180,3789,480
2386,180,3789,435
2387,129,3918,435
2388,-111,3918,501
2389,-111,3915,336
2390,111,4041,336
2391,111,4041,579
2392,471,3966,579
2393,363,3966,459
2394,363,4002,636
2395,183,4182,636
2396,183,4182,717
2397,348,3900,717
2398,387,3900,651
2399,387,3837,561
2400,72,3714,561
2401,72,3714,351
2402,-210,4014,351
2403,39,4014,594
2404,39,4641,936
2405,219,4641,936
2406,219,4326,876
2407,-195,3651,876
2408,-495,3651,120
2409,-495,3402,390
2410,192,3402,390
2411,192,3846,396
2412,477,4398,396
2413,456,4398,702
2414,456,4335,630
2415,504,4335,630
2416,504,3546,129
2417,444,3606,129
2418,753,3606,129
2419,753,4440,591
2420,1095,4440,591
2421,1095,4725,750
2422,528,4737,750
2423,-48,4737,672
2424,-48,3630,303
2425,-585,3630,303
2426,-585,3726,396
2427,-21,3660,396
2428,435,3660,444
2429,435,3834,384
2430,294,3834,384
2431,294,3837,366
2432,381,4059,366
2433,408,4059,366
2434,408,3969,519
2435,381,3969,519
2436,381,4344,666
2437,288,4083,666
2438,237,4083,585
2439,237,3954,405
2440,414,3954,405
2441,414,4080,501
2442,648,4218,501
2443,630,4218,501
2444,630,4140,390
2445,390,4140,390
2446,390,3927,294
2447,453,4116,294
2448,759,4116,414
2449,759,4101,366
2450,783,4101,366
2451,783,4176,384
2452,777,4248,384
2453,837,4248,369
2454,837,4143,369
2455,870,4143,264
2456,870,4113,129
2457,1074,4203,129
2458,1218,4203,189
2459,1218,4122,189
2460,1320,4122,240
2461,1320,4242,234
2462,1845,4440,234
2463,2442,4440,336
2464,2442,4272,336
2465,588,4272,210
2466,588,3648,45
2467,90,4056,45
2468,2313,4056,420
2469,2313,4401,420
2470,3636,4401,681
2471,3636,4878,672
2472,3363,4389,672
2473,492,4389,138
2474,492,3846,138
2475,216,3846,-147
2476,216,3963,9
2477,2181,4263,9
2478,3216,4263,288
2479,3216,4578,288
2480,3441,4578,456
2481,3441,4623,351
2482,2325,4401,351
2483,2109,4401,45
2484,2109,4143,45
2485,2592,4143,-138
2486,2592,4335,-21
2487,2952,4326,-21
2488,2952,4326,-51
2489,3270,4320,-51
2490,3669,4320,-126
2491,3669,4293,-123
2492,3288,4194,-123
2493,3288,4194,-63
2494,2535,3936,-63
2495,2985,3936,-81
2496,2985,3921,54
2497,3723,4263,54
2498,3723,4263,39
2499,4278,3864,39
2500,3909,3864,-147
2501,3909,3621,-102
2502,2934,3285,-102
2503,2934,3285,-18
2504,2778,3003,-18
2505,3546,3003,-27
2506,3546,3102,45
2507,4464,2973,45
2508,4464,2973,84
2509,4353,2895,84
2510,3015,2895,93
2511,3015,2406,114
2512,2568,1812,114
2513,2568,1812,135
2514,2778,1842,135
2515,3273,1842,384
2516,3273,1602,369
2517,3756,1653,369
2518,3756,1653,240
2519,3537,1236,240
2520,2733,1236,84
2521,2733,600,129
2522,2379,330,129
2523,2379,330,294
2524,2532,408,294
2525,2778,408,420
2526,2778,282,399
2527,3075,282,399
2528,3075,81,480
2529,2877,-195,480
2530,1596,-195,480
2531,1596,-822,459
2532,1026,-822,459
2533,1026,-996,570
2534,1716,-831,570
2535,2292,-831,822
2536,2292,-822,912
2537,2316,-822,912
2538,2316,-807,981
2539,1854,-1125,981
2540,1473,-1125,900
2541,1473,-1185,807
2542,1749,-1185,807
2543,1749,-924,765
2544,2283,-645,765
2545,2889,-645,732
2546,2889,-642,480
2547,2853,-642,480
2548,2853,-573,561
2549,2517,-576,561
2550,2655,-576,510
2551,2655,-297,396
2552,3156,-297,396
2553,3156,-9,366
2554,3558,210,366
2555,3489,210,369
2556,3489,-81,366
2557,3051,-81,366
2558,3051,102,441
2559,3015,225,441
2560,3087,225,414
2561,3087,300,426
2562,2901,300,426
2563,2901,606,414
2564,2907,765,414
2565,3090,765,426
2566,3090,1395,471
2567,3723,1395,471
2568,3723,1587,369
2569,4041,1647,369
2570,4023,1647,255
2571,4023,1962,255
2572,3696,1962,279
2573,3696,1779,189
2574,3345,2064,189
2575,3573,2064,288
2576,3573,2055,288
2577,3777,2055,258
2578,3777,2529,315
2579,4104,2871,315
2580,4014,2871,264
2581,4014,2826,264
2582,3660,2826,174
2583,3660,2772,150
2584,3795,2568,150
2585,3843,2568,180
2586,3843,3018,180
2587,3618,3018,300
2588,3618,2907,255
2589,3024,2862,255
2590,2694,2862,24
2591,2694,2910,24
2592,2748,2910,150
2593,2748,3216,294
2594,2901,3357,294
2595,2859,3357,414
2596,2859,3486,414
2597,2745,3486,345
2598,2745,3702,426
2599,2559,3900,426
2600,2559,3900,294
2601,2352,3897,294
2602,2517,3897,243
2603,2517,4050,384
2604,2886,4224,384
2605,2886,4224,594
2606,2748,4308,594
2607,2166,4308,510
2608,2166,4068,279
2609,2019,4059,279
2610,2019,4059,381
2611,1941,4359,381
2612,2103,4359,564
2613,2103,4323,465
2614,2106,4311,465
2615,2106,4311,510
2616,2106,4338,510
2617,1974,4338,465
2618,1974,4287,351
2619,1665,4248,351
2620,1665,4248,165
2621,1608,4227,165
2622,1758,4227,183
2623,1758,4359,369
2624,1851,4302,369
2625,1851,4302,303
2626,1602,4134,303
2627,1224,4134,303
2628,1224,4122,228
2629,930,4134,228
2630,930,4134,243
2631,1206,4122,243
2632,1302,4122,459
2633,1302,4131,450
2634,1029,4086,450
2635,1029,4086,384
2636,732,3930,384
2637,882,3930,189
2638,882,3876,183
2639,1047,4167,183
2640,1047,4167,294
2641,1095,4380,294
2642,1263,4380,489
2643,1263,4767,702
2644,1197,4401,702
2645,1197,4401,606
2646,753,4119,606
2647,459,4119,405
2648,459,3702,168
2649,609,3702,168
2650,609,3654,189
2651,639,4002,189
2652,603,4002,264
2653,603,3951,249
2654,426,3951,249
2655,426,3996,336
2656,762,4068,336
2657,783,4068,294
2658,783,4002,285
2659,576,4002,285
2660,576,3999,288
2661,318,4095,288
2662,-213,4095,-12
2663,-213,4047,249
2664,228,4047,249
2665,228,3987,309
2666,405,4023,309
2667,504,4023,105
2668,504,4095,138
2669,486,4095,138
2670,486,4389,300
2671,450,4287,300
2672,192,4287,210
2673,192,4080,75
2674,45,4080,75
2675,45,4131,210
2676,180,4062,210
2677,210,4062,210
2678,210,4053,189
2679,3,4053,189
2680,3,3828,78
2681,-114,3810,78
2682,354,3810,24
2683,354,4212,405
2684,1017,4212,405
2685,1017,4812,606
2686,834,4479,606
2687,30,4479,414
2688,30,3969,63
2689,-291,3969,63
2690,-291,3708,-171
2691,-75,3690,-171
2692,258,3690,-132
2693,258,3927,-57
2694,468,3927,-57
2695,468,4443,309
2696,543,4416,309
2697,162,4416,234
2698,162,4155,-27
2699,54,4155,-27
2700,54,3999,-102
2701,165,3879,-102
2702,252,3879,-201
2703,252,4074,-201
2704,369,4074,-96
2705,369,4167,-51
2706,270,4209,-51
2707,207,4209,33
2708,207,4110,33
2709,192,4110,-12
2710,192,4041,-162
2711,192,3993,-162
2712,180,3993,-111
2713,180,4122,-111
2714,327,4122,-93
2715,327,4119,-6
2716,312,4059,-6
2717,312,4059,-36
2718,207,4053,-36
2719,159,4053,-117
2720,159,4083,-81
2721,240,4101,-81
2722,240,4101,-87
2723,300,4158,-87
2724,399,4158,24
2725,399,4248,108
2726,336,4140,108
2727,336,4140,84
2728,210,4113,84
2729,237,4113,84
2730,237,4062,18
2731,216,4041,18
2732,216,4041,60
2733,72,4068,60
2734,216,4068,123
2735,216,4023,39
2736,375,4086,39
2737,375,4086,99
2738,393,4149,99
2739,300,4149,138
2740,300,4146,0
2741,234,3981,0
2742,234,3981,-102
2743,132,3969,-102
2744,156,3969,-12
2745,156,4041,39
2746,192,4041,39
2747,192,4137,48
2748,306,4149,48
2749,336,4149,24
2750,336,4101,9
2751,354,4101,9
2752,354,4047,-27
2753,309,4047,-27
2754,231,4047,-78
2755,231,4119,-81
2756,345,4119,-81
2757,345,4167,-36
2758,291,4182,-36
2759,279,4182,18
2760,279,4038,-57
2761,258,4038,-57
2762,258,4083,-147
2763,297,4089,-147
2764,297,4089,-66
2765,297,4044,-108
2766,267,4044,-108
2767,267,4176,-87
2768,318,4140,-87
2769,156,4140,-57
2770,156,4065,-81
2771,195,4065,-81
2772,195,4107,-48
2773,294,4071,-48
2774,261,4071,0
2775,261,4200,0
2776,246,4200,0
2777,246,4062,48
2778,162,4080,48
2779,180,4080,0
2780,180,4044,18
2781,219,4044,18
2782,219,4011,-36
2783,138,4008,-36
2784,174,4008,-81
2785,174,4047,-81
2786,234,4047,-51
2787,234,4101,30
2788,324,4173,30
2789,279,4173,-42
2790,279,4095,-42
2791,228,4095,-93
2792,228,4062,-87
2793,132,4095,-87
2794,270,4095,-36
2795,270,4032,-36
2796,327,4032,-78
2797,327,4131,-72
2798,327,4101,-72
2799,336,4101,3
2800,336,4056,3
2801,198,4056,-87
2802,198,4092,-57
2803,291,4068,-57
2804,297,4068,-6
2805,297,4107,-6
2806,261,4107,-81
2807,261,4065,-87
2808,207,4110,-87
2809,207,4110,-21
2810,270,4125,-21
2811,252,4125,-57
2812,252,4050,-111
2813,210,4155,-111
2814,210,4155,-78
2815,234,4080,-78
2816,177,4080,-156
2817,177,4044,-12
2818,201,4080,-12
2819,201,4080,-21
2820,318,4074,-21
2821,264,4074,33
2822,264,4137,-12
2823,183,4059,-12
2824,183,4059,-12
2825,183,4119,-12
2826,303,4119,-51
2827,303,4029,-81
2828,282,4107,-81
2829,282,4107,-138
2830,294,4131,-138
2831,246,4131,-81
2832,246,4131,-18
2833,243,4083,-18
2834,243,4083,0
2835,213,4101,0
2836,330,4101,-42
2837,330,4059,-48
2838,276,4059,-48
2839,276,4098,-81
2840,285,4080,-81
2841,252,4080,-108
2842,252,4086,3
2843,264,4086,3
2844,264,4014,-141
2845,285,4122,-141
2846,261,4122,3
2847,261,4116,-117
2848,207,4116,-117
2849,207,4071,-48
2850,159,4059,-48
2851,228,4059,-117
2852,228,4083,-33
2853,282,4083,-33
2854,282,4119,-102
2855,264,4101,-102
2856,171,4101,-72
2857,171,4068,-51
2858,261,4068,-51
2859,261,4047,-78
2860,312,4119,-78
2861,345,4119,-36
2862,345,4116,-36
2863,258,4116,-36
2864,258,4071,-21
2865,246,4050,-21
2866,210,4050,-36
2867,210,4107,-36
2868,189,4107,-108
2869,189,4101,-87
2870,291,4086,-87
2871,309,4086,-93
2872,309,4098,-93
2873,309,4098,-87
2874,309,4089,-78
2875,234,4083,-78
2876,192,4083,-78
2877,192,4104,-78
2878,180,4104,-78
2879,180,4038,-87
2880,207,4029,-87
2881,294,4029,-81
2882,294,4089,-81
2883,207,4089,-102
2884,207,4080,-111
2885,285,4059,-111
2886,225,4059,-177
2887,225,4008,-177
2888,267,4008,-156
2889,267,4155,-57
2890,309,4101,-57
2891,309,4101,-102
2892,192,4098,-102
2893,165,4098,-63
2894,165,4074,-117
2895,171,4029,-117
2896,171,4029,-63
2897,201,4152,-63
2898,207,4152,-51
2899,207,4020,-66
2900,213,4113,-66
2901,213,4113,-138
2902,231,4092,-138
2903,198,4092,-48
2904,198,4101,-51
2905,189,4080,-51
2906,189,4080,-57
2907,243,4119,-57
2908,234,4119,-96
2909,234,4140,-78
2910,228,4107,-78
2911,228,4107,-33
2912,156,4089,-33
2913,213,4089,-96
2914,213,4053,-66
2915,93,4101,-66
2916,93,4101,-117
2917,234,4101,-117
2918,243,4101,-126
2919,243,4167,-132
2920,267,4152,-132
2921,267,4152,-111
2922,264,4140,-111
2923,267,4140,-108
2924,267,4107,-117
2925,189,4107,-117
2926,189,4056,-117
2927,198,4095,-117
2928,285,4095,-222
2929,285,4056,-108
2930,246,4056,-108
2931,246,4125,-51
2932,309,4185,-51
2933,216,4185,-57
2934,216,4104,-93
2935,159,4104,-93
2936,159,4071,-153
2937,132,4032,-153
2938,285,4032,-102
2939,285,4035,-132
2940,333,4035,-132
2941,333,4155,-63
2942,327,4068,-63
2943,180,4068,-147
2944,180,4047,-108
2945,210,4047,-108
2946,210,4143,-96
2947,279,4113,-96
2948,246,4113,-111
2949,246,4134,-102
2950,189,4134,-102
2951,189,4023,-93
2952,264,4098,-93
2953,252,4098,-138
2954,252,4101,-138
2955,216,4101,-102
2956,216,4098,-132
2957,192,4098,-132
2958,234,4098,-87
2959,234,4086,-87
2960,231,4086,-123
2961,231,4068,-153
2962,174,4080,-153
2963,246,4080,-138
2964,246,4071,-138
2965,189,4071,-141
2966,189,4065,-132
2967,261,4137,-132
2968,243,4137,-72
2969,243,4104,-72
2970,258,4104,-33
2971,258,4104,-156
2972,216,4068,-156
2973,216,4068,-171
2974,270,4101,-171
2975,252,4101,-132
2976,252,4134,-153
2977,201,4074,-153
2978,201,4074,-183
2979,264,4104,-183
2980,330,4104,-72
2981,330,4200,-57
2982,390,4101,-57
2983,390,4101,-138
2984,336,4176,-138
2985,396,4176,-12
2986,396,4158,-27
2987,417,4119,-27
2988,417,4119,-102
2989,483,4224,-102
2990,915,4224,-81
2991,915,4323,48
2992,1056,4338,48
2993,1056,4338,9
2994,1275,4476,9
2995,1776,4476,-141
2996,1776,4476,-87
2997,2310,4734,-87
2998,2310,4734,-27
2999,2283,4617,-27
3000,1893,4617,-216
3001,1893,4464,-297
3002,1866,4464,-297
3003,1866,4488,-288
3004,2229,4581,-288
3005,2577,4581,-96
3006,2577,4680,-78
3007,2730,4680,-78
3008,2730,4857,-141
3009,2691,4809,-141
3010,2349,4809,-288
3011,2349,4596,-348
3012,2031,4596,-348
3013,2031,4368,-414
3014,2112,4446,-414
3015,2571,4446,-348
3016,2571,4644,-186
3017,2760,4644,-186
3018,2760,4569,-231
3019,2448,4374,-231
3020,2007,4374,-282
3021,2007,3990,-438
3022,1923,3990,-438
3023,1923,3816,-468
3024,2478,3930,-468
3025,3075,3930,-429
3026,3075,3852,-429
3027,3240,3852,-393
3028,3240,3642,-408
3029,3075,3681,-408
3030,3090,3681,-378
3031,3090,3411,-378
3032,3240,3411,-477
3033,3240,3198,-468
3034,3378,2943,-468
3035,3288,2943,-507
3036,3288,2838,-507
3037,3447,2838,-477
3038,3447,2691,-348
3039,3735,2532,-348
3040,3693,2532,-318
3041,3693,2244,-318
3042,3318,2244,-273
3043,3318,2124,-207
3044,3219,1836,-207
3045,3189,1836,-201
3046,3189,1572,-201
3047,3501,1572,-201
3048,3501,1362,-162
3049,3894,1359,-162
3050,3978,1359,-96
3051,3978,1275,-96
3052,3435,1275,-93
3053,3435,669,-81
3054,2853,771,-81
3055,2853,771,120
3056,3003,594,120
3057,3144,594,180
3058,3144,216,198
3059,3393,192,198
3060,3393,192,285
3061,3489,105,285
3062,3516,105,210
3063,3516,105,345
3064,3765,117,345
3065,3765,117,369
3066,4005,-180,369
3067,3474,-180,261
3068,3474,-753,321
3069,3105,-834,321
3070,3105,-834,456
3071,2628,-1212,456
3072,2301,-1212,651
3073,2301,-1371,867
3074,2106,-1236,867
3075,2106,-1236,1002
3076,2280,-1467,1002
3077,2232,-1467,1071
3078,2232,-1710,963
3079,1947,-1734,963
3080,1947,-1734,942
3081,1758,-1749,942
3082,1752,-1749,942
3083,1752,-1830,915
3084,1614,-1797,915
3085,1614,-1797,855
3086,1353,-1755,855
3087,1557,-1755,771
3088,1557,-1653,720
3089,1557,-1653,720
3090,1557,-1356,720
3091,2052,-1083,720
3092,2325,-1083,564
3093,2325,-942,489
3094,2406,-942,489
3095,2406,-912,426
3096,2589,-567,426
3097,3111,-567,396
3098,3111,-237,339
3099,3414,-237,339
3100,3414,189,360
3101,3705,186,360
3102,3405,186,273
3103,3405,42,294
3104,3177,42,294
3105,3177,435,243
3106,3297,720,243
3107,3450,720,165
3108,3450,972,168
3109,3726,972,168
3110,3726,1014,78
3111,3963,1518,78
3112,4077,1518,63
3113,4077,1641,18
3114,3972,1641,18
3115,3972,1368,0
3116,3420,1506,0
3117,3456,1506,30
3118,3456,2178,-18
3119,3852,2178,-18
3120,3852,2325,15
3121,4077,2418,15
3122,3756,2418,99
3123,3756,2169,99
3124,3276,2169,75
3125,3276,2304,48
3126,3114,2940,48
3127,3369,2940,45
3128,3369,3135,45
3129,3879,3135,-117
3130,3879,3327,-198
3131,3912,3384,-198
3132,3546,3384,-183
3133,3546,3213,-183
3134,3195,3213,-237
3135,3195,3498,-246
3136,3237,3435,-246
3137,3237,3435,-276
3138,3231,3699,-276
3139,3276,3699,-171
3140,3276,3891,-87
3141,3150,3870,-87
3142,3150,3870,-66
3143,2898,3678,-66
3144,2712,3678,-12
3145,2712,3855,3
3146,2613,3948,3
3147,2613,3948,-162
3148,2439,3906,-162
3149,2376,3906,-216
3150,2376,3951,-282
3151,2325,4002,-282
3152,2325,4002,-333
3153,2277,3957,-333
3154,2229,3957,-132
3155,2229,3966,-36
3156,1914,4056,-36
3157,1914,4056,69
3158,1527,4125,69
3159,1434,4125,-33
3160,1434,4131,-42
3161,1464,4122,-42
3162,1464,4122,-111
3163,1620,4092,-111
3164,1596,4092,-36
3165,1596,4236,30
3166,1434,4236,30
3167,1434,4386,-18
3168,1326,4491,-18
3169,1209,4491,-111
3170,1209,4365,-207
3171,1128,4365,-207
3172,1128,4251,-339
3173,1119,4161,-339
3174,1152,4161,-402
3175,1152,4305,-399
3176,1101,4305,-399
3177,1101,4404,-363
3178,984,4452,-363
3179,924,4452,-297
3180,924,4452,-228
3181,906,4452,-228
3182,906,4548,-228
3183,918,4470,-228
3184,846,4470,-276
3185,846,4296,-369
3186,705,4296,-369
3187,705,4149,-276
3188,450,4053,-276
3189,195,4053,-348
3190,195,4182,-312
3191,294,4182,-312
3192,294,4224,-186
3193,402,4218,-186
3194,456,4218,-156
3195,456,4188,-201
3196,432,4188,-201
3197,432,4110,-171
3198,279,4101,-171
3199,108,4101,-207
3200,108,4110,-207
3201,120,4110,-162
3202,120,4152,-171
3203,249,4239,-171
3204,390,4239,-147
3205,390,4170,-147
3206,378,4170,-156
3207,378,4191,-222
3208,141,4146,-222
3209,60,4146,-231
3210,60,4095,-231
3211,69,4095,-237
3212,69,4167,-111
3213,42,4116,-111
3214,-69,4116,-132
3215,-69,4077,-132
3216,-129,4077,-72
3217,-129,3981,-12
3218,-183,3999,-12
3219,-177,3999,3
3220,-177,4089,3
3221,-270,4089,33
3222,-270,4125,75
3223,-96,4200,75
3224,45,4200,33
3225,45,4251,33
3226,120,4251,-72
3227,120,4125,-177
3228,6,4095,-177
3229,-27,4095,-228
3230,-27,4119,-228
3231,33,4119,-216
3232,33,4101,-312
3233,69,4131,-312
3234,90,4131,-231
3235,90,4152,-231
3236,60,4152,-243
3237,60,4092,-414
3238,33,4035,-414
3239,33,4035,-378
3240,57,4029,-378
3241,63,4029,-384
3242,63,4068,-333
3243,3,3945,-333
3244,3,3945,-237
3245,-120,4011,-237
3246,-12,4011,-246
3247,-12,4161,-111
3248,-33,4203,-111
3249,-33,4203,-132
3250,-144,4086,-132
3251,-300,4086,-276
3252,-300,3942,-342
3253,-291,4059,-342
3254,-291,4059,-297
3255,-186,4101,-297
3256,-30,4101,-258
3257,-30,4104,-201
3258,21,4113,-201
3259,21,4113,-171
3260,-153,4239,-171
3261,-18,4239,-81
3262,-18,4257,-93
3263,75,4197,-93
3264,75,4197,-207
3265,105,4125,-207
3266,-36,4125,-168
3267,-36,4059,-192
3268,-150,4065,-192
3269,-150,4065,-243
3270,-15,4134,-243
3271,69,4134,-171
3272,69,4248,-153
3273,126,4248,-153
3274,126,4134,-261
3275,-78,4086,-261
3276,-105,4086,-237
3277,-105,3987,-153
3278,-111,3987,-153
3279,-111,4131,-132
3280,-219,4080,-132
3281,-291,4080,-108
3282,-291,4146,-102
3283,-99,4146,-102
3284,-99,4062,-183
3285,0,4134,-183
3286,-96,4134,-252
3287,-96,4095,-228
3288,-225,4095,-228
3289,-225,4074,-282
3290,-126,4077,-282
3291,57,4077,-303
3292,57,4101,-321
3293,60,4101,-321
3294,60,4053,-321
3295,-42,4125,-321
3296,-81,4125,-288
3297,-81,4089,-273
3298,-99,4089,-273
3299,-99,4116,-291
3300,-183,4068,-291
3301,-168,4068,-339
3302,-168,4089,-282
3303,-24,4089,-282
3304,-24,4029,-276
3305,-48,4134,-276
3306,-42,4134,-261
3307,-42,4092,-321
3308,-126,4092,-321
3309,-126,4110,-342
3310,-138,4053,-342
3311,-42,4053,-357
3312,-42,4053,-363
3313,-24,4053,-363
3314,-24,4095,-273
3315,-18,4158,-273
3316,-12,4158,-282
3317,-12,4092,-282
3318,-150,4092,-297
3319,-150,4038,-384
3320,-168,4059,-384
3321,21,4059,-303
3322,21,4185,-303
3323,105,4185,-258
3324,105,4152,-276
3325,-30,4104,-276
3326,-120,4104,-357
3327,-120,4059,-357
3328,-111,4059,-273
3329,-111,4107,-246
3330,-45,4179,-246
3331,-51,4179,-198
3332,-51,4128,-198
3333,-27,4128,-243
3334,-27,4146,-342
3335,-6,4074,-342
3336,-75,4074,-306
3337,-75,4077,-306
3338,-84,4077,-327
3339,-84,4125,-258
3340,-69,4146,-258
3341,-69,4146,-213
3342,-51,4104,-213
3343,-48,4104,-276
3344,-48,4104,-261
3345,-48,4047,-261
3346,-48,4047,-276
3347,-87,4092,-276
3348,-57,4092,-282
3349,-57,4056,-261
3350,-66,4086,-261
3351,-66,4086,-246
3352,-75,4182,-246
3353,-69,4182,-186
3354,-69,4089,-261
3355,-96,4089,-261
3356,-96,4089,-321
3357,-99,4026,-321
3358,-36,4026,-384
3359,-36,4059,-369
3360,-30,4110,-369
3361,-30,4110,-354
3362,-150,4089,-354
3363,-207,4089,-291
3364,-207,4119,-291
3365,-144,4146,-291
3366,-144,4146,-273
3367,-69,4038,-273
3368,-93,4038,-393
3369,-93,4041,-438
3370,-57,4041,-438
3371,-57,4044,-432
3372,-60,4032,-432
3373,-150,4032,-408
3374,-150,4080,-348
3375,-69,4080,-348
3376,-69,4107,-312
3377,-69,4107,-312
3378,-51,4107,-417
3379,-51,4059,-399
3380,-96,4059,-399
3381,-96,4023,-297
3382,-66,4128,-297
3383,33,4128,-306
3384,33,4107,-318
3385,3,4107,-318
3386,3,4140,-318
3387,-36,4092,-318
3388,-99,4092,-348
3389,-99,4074,-318
3390,-45,4074,-318
3391,-45,4167,-237
3392,36,4173,-237
3393,6,4173,-318
3394,6,4119,-318
3395,-9,4119,-318
3396,-9,4119,-291
3397,-12,4146,-291
3398,-24,4146,-297
3399,-24,4107,-252
3400,-57,4107,-252
3401,-57,4116,-252
3402,-9,4125,-252
3403,-6,4125,-246
3404,-6,4110,-261
3405,-48,4110,-261
3406,-48,4086,-357
3407,-78,4074,-357
3408,-12,4074,-288
3409,-12,4056,-288
3410,-27,4056,-312
3411,-27,4017,-267
3412,-57,4005,-267
3413,-129,4005,-312
3414,-129,4050,-312
3415,-15,4050,-357
3416,-15,4053,-333
3417,-102,4053,-333
3418,-186,4053,-348
3419,-186,4059,-348
3420,-132,4059,-369
3421,-132,4026,-399
3422,-66,4080,-399
3423,-66,4080,-342
3424,-99,4059,-342
3425,-117,4059,-387
3426,-117,4053,-414
3427,-132,4053,-414
3428,-132,4053,-417
3429,-144,4137,-417
3430,-78,4137,-291
3431,-78,4113,-429
3432,-57,4068,-429
3433,-57,4068,-408
3434,-102,4074,-408
3435,-102,4074,-339
3436,-102,4068,-276
3437,-117,4137,-276
3438,-117,4137,-321
3439,-102,4140,-321
3440,-132,4140,-303
3441,-132,4089,-327
3442,-165,4056,-327
3443,-165,4056,-246
3444,-138,4086,-246
3445,-24,4086,-273
3446,-24,4131,-252
3447,-114,4089,-252
3448,-114,4089,-267
3449,-150,4056,-267
3450,-114,4056,-237
3451,-114,4059,-276
3452,-57,4164,-276
3453,-57,4164,-267
3454,-66,4074,-267
3455,-144,4074,-339
3456,-144,4107,-261
3457,-132,4107,-261
3458,-132,4134,-267
3459,-27,4146,-267
3460,6,4146,-273
3461,6,4131,-348
3462,-96,4131,-348
3463,-96,4035,-378
3464,-87,4107,-378
3465,-81,4107,-369
3466,-81,4137,-393
3467,-105,4137,-393
3468,-105,4089,-393
3469,-102,4056,-393
3470,-75,4056,-387
3471,-75,4113,-342
3472,-60,4113,-342
3473,-60,4098,-357
3474,-99,4044,-357
3475,-174,4044,-372
3476,-174,4038,-369
3477,-153,4038,-369
3478,-153,4101,-342
3479,-69,4125,-342
3480,-120,4125,-312
3481,-120,4107,-372
3482,-216,4107,-372
3483,-216,4068,-354
3484,-162,4059,-354
3485,-144,4059,-372
3486,-144,4101,-372
3487,-129,4101,-348
3488,-129,4143,-312
3489,-147,4131,-312
3490,-165,4131,-327
3491,-165,4026,-327
3492,-198,4026,-369
3493,-198,4068,-321
3494,-129,4077,-321
3495,-75,4077,-252
3496,-75,4110,-252
3497,-99,4110,-321
3498,-99,4080,-327
3499,-171,4080,-327
3500,-102,4080,-363
3501,-102,4092,-363
3502,-78,4092,-327
3503,-78,4149,-297
3504,-15,4119,-297
3505,-60,4119,-303
3506,-60,4086,-303
3507,-96,4086,-321
3508,-96,4125,-342
3509,-15,4113,-342
3510,-60,4113,-303
3511,-60,4149,-303
3512,-60,4149,-321
3513,-60,4104,-354
3514,-9,4155,-354
3515,-9,4155,-363
3516,144,4155,-363
3517,192,4155,-327
3518,192,4158,-444
3519,93,4155,-444
3520,93,4155,-423
3521,381,4305,-423
3522,612,4305,-573
3523,612,4359,-519
3524,867,4533,-519
3525,867,4533,-705
3526,828,4461,-705
3527,1188,4461,-825
3528,1188,4443,-855
3529,1428,4431,-855
3530,1428,4431,-663
3531,1569,4617,-663
3532,1740,4617,-552
3533,1740,4731,-507
3534,1782,4644,-507
3535,1782,4644,-489
3536,1395,4614,-489
3537,1317,4614,-507
3538,1317,4479,-369
3539,1677,4611,-369
3540,1677,4611,-288
3541,2022,4728,-288
3542,2073,4728,-267
3543,2073,4788,-252
3544,2145,4755,-252
3545,2145,4755,-321
3546,2457,4794,-321
3547,2733,4794,-312
3548,2733,4692,-378
3549,2325,4713,-378
3550,2325,4713,-318
3551,2223,4731,-318
3552,2556,4731,-231
3553,2556,4662,-243
3554,2772,4554,-243
3555,2772,4554,-216
3556,2775,4386,-216
3557,2451,4386,-273
3558,2451,4257,-312
3559,2547,4257,-312
3560,2547,4134,-252
3561,2910,3933,-252
3562,3213,3933,-399
3563,3213,3753,-318
3564,3330,3753,-318
3565,3330,3579,-252
3566,3111,3459,-252
3567,2793,3459,-273
3568,2793,3204,-228
3569,2799,3204,-228
3570,2799,2988,-186
3571,3150,3003,-186
3572,3504,3003,-207
3573,3504,2745,-156
3574,3663,2745,-156
3575,3663,2457,-228
3576,3300,2166,-228
3577,2757,2166,-177
3578,2757,1668,-132
3579,2610,1668,-132
3580,2610,1758,105
3581,2964,1812,105
3582,3258,1812,213
3583,3258,1605,150
3584,3654,1605,150
3585,3654,1482,225
3586,3720,900,225
3587,3021,900,183
3588,3021,294,270
3589,2232,294,270
3590,2232,12,399
3591,2061,243,399
3592,2580,243,516
3593,2580,9,660
3594,2766,9,660
3595,2766,-366,867
3596,2130,-609,867
3597,1281,-609,912
3598,1281,-915,912
3599,1317,-915,1008
3600,1317,-957,1188
3601,1779,-753,1188
3602,2199,-753,1221
3603,2199,-795,1221
3604,2154,-795,1173
3605,2154,-900,1143
3606,1674,-897,1143
3607,1398,-897,1038
3608,1398,-948,1038
3609,1578,-948,1008
3610,1578,-648,993
3611,2067,-399,993
3612,2763,-399,843
3613,2763,-111,843
3614,3156,-111,777
3615,3156,75,762
3616,3039,-111,762
3617,2532,-111,711
3618,2532,129,711
3619,2676,129,624
3620,2676,336,489
3621,3276,663,489
3622,3276,663,594
3623,3507,804,594
3624,3228,804,591
3625,3228,753,534
3626,3216,1350,534
3627,3216,1350,429
3628,3687,1725,429
3629,4044,1725,366
3630,4044,1542,288
3631,3456,1482,288
3632,3456,1482,330
3633,2739,1422,330
3634,2766,1422,270
3635,2766,2250,429
3636,3744,2529,429
3637,3744,2529,405
3638,4092,2628,405
3639,3510,2628,531
3640,3510,2568,525
3641,3021,2556,525
3642,3021,2556,336
3643,3015,2865,336
3644,3369,2865,354
3645,3369,3219,339
3646,3450,3264,339
3647,3450,3264,285
3648,3114,3174,285
3649,2820,3174,195
3650,2820,3180,78
3651,2724,3129,78
3652,2724,3129,255
3653,2556,3354,255
3654,2334,3354,381
3655,2334,3666,429
3656,2595,4497,429
3657,2595,4497,303
3658,3144,4416,303
3659,3225,4416,60
3660,3225,4266,-108
3661,2868,4266,-108
3662,2868,4041,-81
3663,2361,4002,-81
3664,1905,4002,60
3665,1905,4116,9
3666,1845,4116,9
3667,1845,4446,108
3668,2085,4557,108
3669,2463,4557,54
3670,2463,4500,15
3671,2310,4500,15
3672,2310,4437,108
3673,1965,4398,108
3674,1725,4398,33
3675,1725,4344,33
3676,1692,4344,33
3677,1692,4269,45
3678,1665,4212,45
3679,1440,4212,-6
3680,1440,4173,93
3681,1347,4173,93
3682,1347,4305,114
3683,1197,4389,114
3684,1113,4389,48
3685,1113,4317,-81
3686,1017,4317,-81
3687,1017,4317,-288
3688,1152,4302,-288
3689,1404,4302,-342
3690,1404,4335,-408
3691,1248,4335,-408
3692,1248,4374,-468
3693,1053,4398,-468
3694,1095,4398,-444
3695,1095,4305,-96
3696,915,4305,-96
3697,915,4416,3
3698,513,4410,3
3699,372,4410,-42
3700,372,4287,-42
3701,519,4287,-132
3702,519,4155,-246
3703,762,4068,-246
3704,843,4068,-357
3705,843,4098,-357
3706,801,4098,-342
3707,801,4227,-192
3708,744,4176,-192
3709,594,4176,-207
3710,594,4188,-207
3711,525,4188,-171
3712,525,4131,-213
3713,480,4158,-213
3714,447,4158,-267
3715,447,4104,-267
3716,369,4104,-231
3717,369,4137,-207
3718,378,4185,-207
3719,378,4185,-222
3720,399,4122,-222
3721,351,4122,-246
3722,351,4113,-186
3723,315,4071,-186
3724,315,4071,-246
3725,402,4098,-246
3726,327,4098,-288
3727,327,4059,-321
3728,264,4098,-321
3729,264,4098,-246
3730,132,4146,-246
3731,120,4146,-306
3732,120,4065,-306
3733,243,4110,-306
3734,243,4110,-354
3735,315,4080,-354
3736,465,4080,-438
3737,465,4131,-261
3738,435,4218,-261
3739,435,4218,-207
3740,366,4140,-207
3741,291,4140,-231
3742,291,4068,-177
3743,246,4032,-177
3744,246,4032,-198
3745,366,4029,-198
3746,351,4029,-291
3747,351,3987,-369
3748,333,3987,-369
3749,333,3981,-423
3750,327,3909,-423
3751,222,3909,-357
3752,222,3990,-333
3753,270,3990,-333
3754,270,4113,-357
3755,312,4092,-357
3756,282,4092,-342
3757,282,4101,-354
3758,228,4101,-354
3759,228,4032,-387
3760,267,4062,-387
3761,336,4062,-399
3762,336,4083,-393
3763,333,4083,-393
3764,333,4113,-339
3765,333,4074,-339
3766,228,4074,-297
3767,228,4095,-228
3768,225,4095,-228
3769,225,4125,-156
3770,354,4092,-156
3771,429,4092,-207
3772,429,4116,-171
3773,333,4116,-171
3774,333,4083,-186
3775,339,4107,-186
3776,405,4107,-288
3777,405,4053,-288
3778,384,4053,-231
3779,384,4116,-252
3780,348,4119,-252
3781,384,4119,-243
3782,384,4080,-243
3783,348,4080,-231
3784,348,4044,-261
3785,387,4059,-261
3786,405,4059,-303
3787,405,4089,-303
3788,333,4089,-246
3789,333,4050,-291
3790,360,4017,-291
3791,354,4017,-354
3792,354,4017,-354
3793,279,4017,-297
3794,279,4098,-258
3795,396,4113,-258
3796,459,4113,-297
3797,459,4110,-297
3798,399,4110,-327
3799,399,4047,-429
3800,378,4038,-429
3801,378,4038,-267
3802,327,4071,-267
3803,270,4071,-297
3804,270,4047,-399
3805,378,4029,-399
3806,378,4029,-318
3807,465,4020,-318
3808,408,4020,-312
3809,408,4008,-357
3810,192,3966,-357
3811,192,3966,-399
3812,201,3996,-399
3813,282,3996,-318
3814,282,4086,-306
3815,396,4131,-306
3816,396,4131,-282
3817,366,4047,-282
3818,321,4047,-354
3819,321,3990,-453
3820,243,4071,-453
3821,243,4071,-321
3822,303,4095,-321
3823,363,4095,-291
3824,363,4164,-297
3825,378,4164,-297
3826,378,4146,-321
3827,339,4050,-321
3828,327,4050,-348
3829,327,4002,-393
3830,267,4002,-393
3831,267,4029,-312
3832,228,4068,-312
3833,180,4068,-303
3834,180,4110,-198
3835,210,4110,-198
3836,210,4071,-276
3837,258,4053,-276
3838,252,4053,-333
3839,252,4107,-273
3840,282,4107,-273
3841,282,4140,-363
3842,336,4083,-363
3843,270,4083,-321
3844,270,4074,-261
3845,282,4074,-261
3846,282,4089,-288
3847,351,4056,-288
3848,303,4056,-303
3849,303,4116,-303
3850,252,4116,-303
3851,252,4089,-282
3852,285,4065,-282
3853,309,4065,-282
3854,309,4062,-306
3855,339,4062,-306
3856,339,4083,-306
3857,264,4101,-306
3858,351,4101,-303
3859,351,4170,-321
3860,384,4170,-321
3861,384,4137,-354
3862,276,4065,-354
3863,261,4065,-384
3864,261,4017,-384
3865,258,4017,-423
3866,258,4095,-447
3867,267,4152,-447
3868,252,4152,-333
3869,252,4062,-333
3870,189,4062,-417
3871,189,4053,-414
3872,258,4059,-414
3873,291,4059,-423
3874,291,4086,-423
3875,276,4086,-348
3876,276,4047,-417
3877,210,4044,-417
3878,225,4044,-321
3879,225,4071,-321
3880,285,4071,-342
3881,285,4062,-339
3882,321,4098,-339
3883,330,4098,-339
3884,330,4062,-339
3885,252,4062,-357
3886,252,4089,-354
3887,216,4062,-354
3888,216,4062,-348
3889,216,4005,-348
3890,243,4005,-303
3891,243,4095,-306
3892,321,4161,-306
3893,321,4161,-333
3894,264,4089,-333
3895,171,4089,-354
3896,171,4044,-417
3897,159,4017,-417
3898,159,4017,-354
3899,297,4104,-354
3900,366,4104,-327
3901,366,4089,-378
3902,276,4098,-378
3903,276,4098,-399
3904,225,3999,-399
3905,177,3999,-393
3906,177,4089,-357
3907,258,4116,-357
3908,258,4116,-429
3909,297,4116,-429
3910,234,4116,-363
3911,234,4050,-414
3912,198,4089,-414
3913,198,4089,-318
3914,222,4095,-318
3915,222,4095,-423
3916,222,4125,-372
3917,252,4146,-372
3918,252,4146,-393
3919,243,4140,-393
3920,225,4140,-354
3921,225,4041,-429
3922,276,4113,-429
3923,276,4113,-378
3924,234,4113,-378
3925,207,4113,-384
3926,207,4107,-354
3927,120,4095,-354
3928,120,4095,-384
3929,234,4059,-384
3930,294,4059,-321
3931,294,4110,-369
3932,294,4110,-369
3933,294,4062,-429
3934,246,4050,-429
3935,228,4050,-384
3936,228,4119,-438
3937,231,4119,-438
3938,231,4119,-399
3939,216,4104,-399
3940,246,4104,-399
3941,246,4071,-357
3942,201,4071,-357
3943,201,4074,-408
3944,279,4065,-408
3945,246,4065,-354
3946,246,4089,-348
3947,144,4089,-348
3948,144,4107,-414
3949,210,4104,-414
3950,249,4104,-339
3951,249,4065,-474
3952,234,4065,-474
3953,234,4092,-459
3954,180,4041,-459
3955,243,4041,-414
3956,243,4101,-372
3957,294,4101,-372
3958,294,4086,-399
3959,258,4080,-399
3960,240,4080,-408
3961,240,4173,-408
3962,309,4173,-306
3963,309,4134,-438
3964,198,4065,-438
3965,162,4065,-438
3966,162,4065,-438
3967,240,4065,-378
3968,240,4086,-417
3969,279,4158,-417
3970,228,4158,-339
3971,228,4062,-339
3972,234,4062,-354
3973,234,4035,-348
3974,198,4035,-348
3975,222,4035,-348
3976,222,4059,-348
3977,252,4059,-369
3978,252,4053,-378
3979,231,4083,-378
3980,231,4083,-297
3981,198,4062,-297
3982,201,4062,-372
3983,201,4044,-369
3984,222,4038,-369
3985,222,4038,-417
3986,156,4062,-417
3987,123,4062,-387
3988,123,4065,-399
3989,210,4074,-399
3990,210,4074,-444
3991,234,4071,-444
3992,228,4071,-414
3993,228,4092,-408
3994,207,4089,-408
3995,207,4089,-402
3996,159,4080,-402
3997,165,4080,-399
3998,165,4041,-408
3999,294,4050,-408
4000,294,4050,-282
4001,285,4125,-282
4002,249,4125,-333
4003,249,4023,-393
4004,180,4044,-393
4005,180,4044,-354
4006,243,4080,-354
4007,291,4080,-339
4008,291,4149,-297
4009,270,4149,-297
4010,270,4098,-318
4011,261,4107,-318
4012,234,4107,-438
4013,234,4125,-399
4014,300,4125,-399
4015,300,4110,-387
4016,309,4098,-387
4017,330,4098,-333
4018,330,4134,-306
4019,321,4134,-306
4020,321,4131,-273
4021,291,4065,-273
4022,216,4065,-399
4023,216,4062,-363
4024,189,4062,-363
4025,189,4074,-333
4026,270,4092,-333
4027,213,4092,-282
4028,213,4059,-402
4029,171,4059,-402
4030,171,4011,-354
4031,180,4074,-354
4032,243,4074,-393
4033,243,4095,-399
4034,222,4095,-399
4035,222,4050,-387
4036,231,4032,-387
4037,183,4032,-468
4038,183,4050,-348
4039,174,4050,-348
4040,174,4086,-357
4041,195,4071,-357
4042,270,4071,-363
4043,270,4083,-348
4044,318,4083,-348
4045,318,4080,-432
4046,249,4047,-432
4047,240,4047,-342
4048,240,4092,-393
4049,207,4092,-393
4050,207,4089,-363
4051,303,4098,-363
4052,285,4098,-393
4053,285,4083,-378
4054,303,4083,-378
4055,303,4068,-414
4056,240,4095,-414
4057,270,4095,-438
4058,270,4065,-438
4059,351,4065,-438
4060,351,4143,-372
4061,333,4095,-372
4062,258,4095,-393
4063,258,4059,-393
4064,339,4059,-447
4065,339,4080,-342
4066,318,4110,-342
4067,351,4110,-327
4068,351,4134,-327
4069,447,4134,-327
4070,447,4131,-282
4071,453,4092,-282
4072,447,4092,-372
4073,447,4182,-372
4074,672,4182,-348
4075,672,4194,-444
4076,810,4188,-444
4077,810,4188,-408
4078,900,4197,-408
4079,819,4197,-444
4080,819,4200,-453
4081,774,4227,-453
4082,774,4227,-378
4083,939,4293,-378
4084,903,4293,-378
4085,903,4206,-378
4086,801,4155,-378
4087,801,4155,-474
4088,747,4080,-474
4089,756,4080,-549
4090,756,4065,-498
4091,900,4107,-498
4092,900,4107,-408
4093,963,4185,-408
4094,993,4185,-417
4095,993,4218,-312
4096,1038,4209,-312
4097,1038,4209,-408
4098,1170,4278,-408
4099,1311,4278,-498
4100,1311,4200,-513
4101,1404,4257,-513
4102,1404,4257,-522
4103,1527,4293,-522
4104,1647,4293,-477
4105,1647,4254,-477
4106,1665,4182,-477
4107,1665,4182,-432
4108,1209,3993,-432
4109,1089,3993,-477
4110,1089,3897,-462
4111,1446,3897,-462
4112,1446,4059,-453
4113,2067,4071,-453
4114,2289,4071,-462
4115,2289,4023,-372
4116,2259,4023,-372
4117,2259,3987,-363
4118,2268,3927,-363
4119,2241,3927,-408
4120,2241,3795,-438
4121,2187,3795,-438
4122,2187,3648,-513
4123,2301,3714,-513
4124,2538,3714,-522
4125,2538,3723,-459
4126,2577,3723,-459
4127,2577,3657,-507
4128,2541,3585,-507
4129,2601,3585,-492
4130,2601,3513,-408
4131,2805,3513,-408
4132,2805,3558,-462
4133,2979,3492,-462
4134,2601,3492,-462
4135,2601,3252,-537
4136,2331,3252,-537
4137,2331,3180,-534
4138,2610,3069,-534
4139,3006,3069,-468
4140,3006,3156,-348
4141,3264,3156,-348
4142,3264,3156,-402
4143,3108,3009,-402
4144,3021,3009,-453
4145,3021,2922,-453
4146,3120,2922,-417
4147,3120,2775,-354
4148,3210,2772,-354
4149,3144,2772,-342
4150,3144,2538,-342
4151,3273,2538,-321
4152,3273,2625,-363
4153,3420,2367,-363
4154,3477,2367,-276
4155,3477,2187,-276
4156,3231,2187,-198
4157,3231,1917,-261
4158,3081,2001,-261
4159,3327,2001,-168
4160,3327,1674,-168
4161,3345,1674,-222
4162,3345,1845,-171
4163,3396,1587,-171
4164,3396,1587,-192
4165,3414,1377,-192
4166,3315,1377,-183
4167,3315,1335,-186
4168,3240,1143,-186
4169,3240,1143,-147
4170,3501,1236,-147
4171,3792,1236,-66
4172,3792,1344,-168
4173,4017,1251,-168
4174,4017,1251,-261
4175,4104,972,-261
4176,3996,972,-177
4177,3996,726,-102
4178,3585,720,-102
4179,3585,720,-78
4180,3549,753,-78
4181,3693,753,30
4182,3693,684,54
4183,3945,678,54
4184,3945,678,75
4185,4005,654,75
4186,3999,654,33
4187,3999,555,9
4188,3801,555,9
4189,3801,381,-21
4190,3753,339,-21
4191,3681,339,69
4192,3681,417,60
4193,4008,417,60
4194,4008,363,15
4195,3984,165,15
4196,3768,165,90
4197,3768,72,138
4198,3588,72,138
4199,3588,54,225
4200,3762,42,225
4201,3645,42,138
4202,3645,-198,204
4203,3147,-198,204
4204,3147,-306,300
4205,3153,-225,300
4206,3435,-225,411
4207,3435,-270,366
4208,3411,-270,366
4209,3411,-261,456
4210,3396,-57,456
4211,3540,-57,375
4212,3540,-171,180
4213,3429,-171,180
4214,3429,-243,189
4215,3360,-240,189
4216,3366,-240,255
4217,3366,-198,294
4218,3420,-198,294
4219,3420,-102,249
4220,3681,-57,249
4221,3810,-57,249
4222,3810,63,228
4223,3837,63,228
4224,3837,21,183
4225,3669,-36,183
4226,3561,-36,180
4227,3561,-114,180
4228,3489,-114,180
4229,3489,-6,204
4230,3522,237,204
4231,3906,237,180
4232,3906,267,180
4233,4245,267,138
4234,4245,372,123
4235,3999,291,123
4236,3402,291,114
4237,3402,162,114
4238,3192,162,225
4239,3192,396,144
4240,3669,582,144
4241,4038,582,165
4242,4038,699,165
4243,3813,699,159
4244,3813,618,135
4245,3429,744,135
4246,3429,744,243
4247,3312,855,243
4248,3522,855,105
4249,3522,1092,39
4250,3726,1035,39
4251,3726,1035,99
4252,3315,1002,99
4253,3033,1002,114
4254,3033,996,63
4255,3039,1635,63
4256,3039,1635,39
4257,3450,1590,39
4258,3438,1590,-72
4259,3438,1566,-33
4260,3000,1500,-33
4261,3000,1500,-96
4262,2721,1737,-96
4263,2892,1737,-48
4264,2892,2205,-48
4265,3456,2499,-48
4266,3456,2499,-96
4267,3726,2451,-96
4268,3330,2451,-231
4269,3330,2457,-216
4270,3060,2658,-216
4271,3060,2658,-246
4272,3243,2769,-246
4273,3339,2769,-252
4274,3339,2964,-237
4275,3168,2964,-237
4276,3168,2973,-237
4277,2970,2925,-237
4278,2847,2925,-276
4279,2847,3054,-288
4280,2898,3054,-288
4281,2898,3333,-213
4282,3060,3528,-213
4283,3051,3528,-216
4284,3051,3651,-186
4285,3018,3651,-186
4286,3018,3561,-297
4287,2727,3495,-297
4288,2517,3495,-384
4289,2517,3726,-414
4290,2661,3726,-414
4291,2661,3942,-558
4292,2814,3912,-558
4293,2670,3912,-582
4294,2670,3858,-498
4295,2469,3858,-498
4296,2469,3894,-372
4297,2196,4011,-372
4298,1980,4011,-327
4299,1980,3933,-369
4300,1776,3933,-369
4301,1776,3972,-444
4302,1638,3885,-444
4303,1551,3885,-663
4304,1551,3813,-735
4305,1620,3813,-735
4306,1620,3840,-612
4307,1575,4167,-612
4308,1767,4167,-597
4309,1767,4353,-384
4310,1689,4353,-384
4311,1689,4428,-474
4312,1458,4416,-474
4313,1371,4416,-534
4314,1371,4227,-684
4315,1308,4227,-684
4316,1308,4170,-693
4317,1362,4155,-693
4318,1227,4155,-663
4319,1227,4227,-663
4320,1161,4227,-642
4321,1161,4248,-483
4322,1230,4278,-483
4323,1182,4278,-468
4324,1182,4203,-468
4325,1023,4203,-399
4326,1023,4161,-408
4327,813,4146,-408
4328,645,4146,-393
4329,645,4149,-393
4330,750,4149,-498
4331,750,4251,-372
4332,873,4311,-372
4333,783,4311,-246
4334,783,4227,-246
4335,624,4227,-276
4336,624,4143,-273
4337,384,4257,-273
4338,432,4257,-312
4339,432,4278,-312
4340,507,4278,-333
4341,507,4170,-429
4342,483,4119,-429
4343,483,4119,-384
4344,363,4191,-384
4345,381,4191,-303
4346,381,4254,-288
4347,345,4215,-288
4348,345,4215,-372
4349,201,4065,-372
4350,147,4065,-291
4351,147,4185,-363
4352,282,4203,-363
4353,282,4203,-339
4354,267,4155,-339
4355,198,4155,-372
4356,198,4140,-378
4357,240,4170,-378
4358,240,4170,-438
4359,309,4164,-438
4360,225,4164,-447
4361,225,4104,-477
4362,126,4068,-477
4363,126,4068,-453
4364,72,4119,-453
4365,138,4119,-492
4366,138,4104,-543
4367,180,4062,-543
4368,180,4062,-558
4369,153,4038,-558
4370,57,4038,-564
4371,57,4056,-498
4372,108,4065,-498
4373,108,4065,-393
4374,6,4023,-393
4375,-15,4023,-429
4376,-15,4080,-429
4377,51,4080,-429
4378,51,4041,-492
4379,120,4044,-492
4380,9,4044,-459
4381,9,4059,-474
4382,15,4059,-474
4383,15,4068,-438
4384,87,4056,-438
4385,87,4056,-423
4386,87,4131,-477
4387,87,4131,-477
4388,87,4131,-444
4389,57,4083,-444
4390,90,4083,-513
4391,90,4083,-453
4392,-9,4083,-453
4393,-9,4041,-468
4394,6,4149,-468
4395,93,4149,-354
4396,93,4107,-321
4397,75,4107,-321
4398,75,4125,-417
4399,63,4131,-417
4400,6,4131,-372
4401,6,4041,-372
4402,-24,4041,-372
4403,-24,4086,-372
4404,63,4053,-372
4405,0,4053,-339
4406,0,4125,-327
4407,-27,4125,-327
4408,-27,4077,-369
4409,6,4095,-369
4410,93,4095,-393
4411,93,4083,-384
4412,93,4083,-384
4413,93,4134,-408
4414,102,4101,-408
4415,36,4101,-417
4416,36,4101,-453
4417,78,4101,-453
4418,78,4056,-417
4419,63,4071,-417
4420,93,4071,-393
4421,93,4158,-399
4422,78,4158,-399
4423,78,4131,-519
4424,21,4071,-519
4425,75,4071,-468
4426,75,4065,-468
4427,120,4065,-483
4428,120,4080,-432
4429,87,4062,-432
4430,51,4062,-489
4431,51,4056,-489
4432,123,4056,-423
4433,123,4014,-477
4434,6,4035,-477
4435,57,4035,-447
4436,57,4110,-447
4437,21,4110,-408
4438,21,4056,-459
4439,57,4032,-459
4440,93,4032,-429
4441,93,4068,-429
4442,93,4068,-492
4443,93,4101,-408
4444,93,4095,-408
4445,93,4095,-444
4446,75,4110,-444
4447,75,4110,-402
4448,75,4098,-402
4449,144,4071,-402
4450,144,4071,-432
4451,78,4107,-432
4452,96,4107,-402
4453,96,4065,-483
4454,39,4101,-483
4455,39,4101,-429
4456,102,4083,-429
4457,180,4083,-438
4458,180,4125,-327
4459,111,4104,-327
4460,111,4104,-468
4461,42,4062,-468
4462,63,4062,-498
4463,63,4062,-384
4464,108,4083,-384
4465,108,4083,-408
4466,57,4068,-408
4467,93,4068,-432
4468,93,4083,-447
4469,147,4035,-447
4470,147,4035,-438
4471,123,4020,-438
4472,27,4020,-474
4473,27,4038,-393
4474,96,4089,-393
4475,96,4089,-438
4476,153,4092,-438
4477,108,4092,-459
4478,108,4053,-468
4479,69,4053,-468
4480,69,4083,-414
4481,180,4143,-414
4482,174,4143,-387
4483,174,4146,-408
4484,183,4146,-408
4485,183,4062,-417
4486,162,4188,-417
4487,147,4188,-387
4488,147,4137,-348
4489,144,4137,-348
4490,144,4074,-414
4491,75,4080,-414
4492,78,4080,-429
4493,78,4131,-333
4494,36,4131,-333
4495,36,4083,-372
4496,15,4071,-372
4497,36,4071,-423
4498,36,4050,-402
4499,39,4050,-402
4500,39,4068,-357
4501,21,4113,-357
4502,90,4113,-357
4503,90,4110,-384
4504,87,4110,-384
4505,87,4074,-447
4506,0,4053,-447
4507,-9,4053,-408
4508,-9,4098,-393
4509,21,4098,-393
4510,21,4107,-408
4511,123,4074,-408
4512,114,4074,-429
4513,114,4080,-444
4514,120,4080,-444
4515,120,4065,-408
4516,18,4032,-408
4517,96,4032,-387
4518,96,4095,-387
4519,111,4095,-432
4520,111,4080,-378
4521,201,4080,-378
4522,141,4080,-414
4523,141,4035,-414
4524,141,4035,-483
4525,141,4062,-438
4526,105,4083,-438
4527,216,4083,-459
4528,216,4110,-459
4529,138,4110,-468
4530,138,4107,-447
4531,87,4119,-447
4532,96,4119,-438
4533,96,4086,-438
4534,69,4086,-402
4535,69,4020,-474
4536,123,4053,-474
4537,123,4053,-387
4538,78,4131,-387
4539,153,4131,-321
4540,153,4122,-417
4541,147,4065,-417
4542,147,4065,-432
4543,144,4056,-432
4544,105,4056,-477
4545,105,4098,-429
4546,171,4134,-429
4547,171,4134,-387
4548,201,4092,-387
4549,165,4092,-357
4550,165,4116,-339
4551,87,4089,-339
4552,87,4089,-459
4553,27,4107,-459
4554,75,4107,-372
4555,75,4068,-402
4556,87,4053,-402
4557,87,4053,-369
4558,126,4101,-369
4559,72,4101,-348
4560,72,4113,-378
4561,87,4098,-378
4562,87,4098,-438
4563,57,3993,-438
4564,63,3993,-423
4565,63,4068,-378
4566,96,4146,-378
4567,96,4146,-372
4568,90,4104,-372
4569,120,4104,-387
4570,120,4086,-483
4571,72,4053,-483
4572,72,4053,-462
4573,90,4065,-462
4574,36,4065,-453
4575,36,4101,-468
4576,108,4101,-468
4577,108,4104,-444
4578,108,4122,-444
4579,111,4122,-447
4580,111,4074,-423
4581,87,4074,-423
4582,87,4074,-423
4583,78,4083,-423
4584,84,4083,-354
4585,84,4089,-414
4586,96,4089,-414
4587,96,4062,-423
4588,111,4086,-423
4589,144,4086,-354
4590,144,4104,-318
4591,111,4104,-318
4592,111,4146,-333
4593,57,4092,-333
4594,105,4092,-417
4595,105,4101,-438
4596,192,4101,-438
4597,192,4071,-423
4598,189,4071,-423
4599,141,4071,-429
4600,141,4032,-429
4601,54,4032,-474
4602,54,4095,-417
4603,96,4107,-417
4604,165,4107,-408
4605,165,4143,-408
4606,159,4143,-414
4607,159,4095,-492
4608,69,4056,-492
4609,108,4056,-429
4610,108,4044,-429
4611,87,4044,-372
4612,87,4101,-417
4613,84,4068,-417
4614,60,4068,-378
4615,60,4044,-378
4616,132,4044,-429
4617,132,4089,-414
4618,180,4137,-414
4619,75,4137,-414
4620,75,4110,-414
4621,27,4110,-429
4622,27,4053,-549
4623,87,4071,-549
4624,87,4071,-408
4625,189,4080,-408
4626,195,4080,-414
4627,195,4065,-477
4628,51,4038,-477
4629,51,4038,-483
4630,-27,4065,-483
4631,45,4065,-468
4632,45,4101,-438
4633,114,4098,-438
4634,114,4098,-423
4635,126,4095,-423
4636,51,4095,-393
4637,51,4065,-528
4638,15,4080,-528
4639,15,4080,-414
4640,69,4107,-414
4641,120,4107,-378
4642,120,4098,-384
4643,120,4074,-384
4644,120,4074,-378
4645,93,4104,-378
4646,141,4104,-444
4647,141,4137,-429
4648,120,4110,-429
4649,120,4110,-402
4650,201,4125,-402
4651,153,4125,-378
4652,153,4098,-363
4653,114,4080,-363
4654,114,4080,-399
4655,78,4107,-399
4656,69,4107,-354
4657,69,4131,-333
4658,144,4110,-333
4659,144,4110,-372
4660,180,4152,-372
4661,243,4152,-447
4662,243,4137,-453
4663,183,4044,-453
4664,183,4044,-507
4665,15,4020,-507
4666,84,4020,-483
4667,84,4083,-414
4668,201,4083,-414
4669,201,4110,-378
4670,192,4083,-378
4671,291,4083,-417
4672,291,4080,-432
4673,312,4080,-432
4674,312,4086,-474
4675,183,4137,-474
4676,435,4137,-534
4677,435,4137,-564
4678,540,4137,-564
4679,540,4227,-612
4680,699,4236,-612
4681,780,4236,-675
4682,780,4245,-612
4683,1005,4245,-612
4684,1005,4350,-504
4685,1278,4521,-504
4686,1569,4521,-477
4687,1569,4524,-528
4688,1350,4524,-528
4689,1350,4365,-663
4690,849,4278,-663
4691,990,4278,-633
4692,990,4416,-528
4693,1698,4416,-528
4694,1698,4551,-504
4695,2043,4599,-504
4696,1758,4599,-519
4697,1758,4530,-519
4698,1488,4530,-507
4699,1488,4449,-588
4700,1521,4416,-588
4701,1824,4416,-537
4702,1824,4320,-537
4703,1596,4320,-537
4704,1596,4242,-603
4705,1482,4224,-603
4706,1791,4224,-573
4707,1791,4275,-573
4708,2169,4275,-579
4709,2169,4311,-549
4710,2244,4101,-549
4711,2085,4101,-660
4712,2085,4161,-660
4713,2016,4161,-660
4714,2016,4065,-690
4715,2091,3948,-690
4716,2091,3948,-699
4717,2118,3828,-699
4718,2388,3828,-753
4719,2388,3711,-660
4720,2571,3759,-660
4721,2571,3759,-579
4722,2712,3699,-579
4723,2835,3699,-648
4724,2835,3606,-594
4725,2754,3180,-594
4726,2754,3180,-603
4727,2394,3249,-603
4728,2517,3249,-579
4729,2517,3126,-483
4730,2799,2958,-483
4731,2799,2958,-564
4732,3003,2946,-564
4733,2901,2946,-459
4734,2901,2772,-513
4735,2847,2748,-513
4736,2847,2748,-498
4737,2970,2718,-498
4738,3327,2718,-462
4739,3327,2490,-384
4740,3483,2247,-384
4741,3483,2247,-342
4742,3279,2226,-342
4743,3264,2226,-384
4744,3264,2025,-417
4745,3315,2058,-417
4746,3315,2058,-261
4747,3462,1821,-261
4748,3342,1821,-312
4749,3342,1614,-177
4750,3150,1560,-177
4751,3150,1560,-192
4752,3210,1335,-192
4753,3489,1335,-168
4754,3489,1320,-57
4755,3603,1326,-57
4756,3603,1326,18
4757,3567,1185,18
4758,3480,1185,-6
4759,3480,1209,0
4760,3474,1209,0
4761,3474,993,-48
4762,3588,846,-48
4763,3744,846,-6
4764,3744,1005,69
4765,3858,1005,69
4766,3858,924,99
4767,3948,771,99
4768,4074,771,69
4769,4074,951,105
4770,4245,951,105
4771,4245,657,63
4772,4137,402,63
4773,3621,402,174
4774,3621,123,225
4775,3279,123,225
4776,3279,42,258
4777,3231,-30,258
4778,3222,-30,426
4779,3222,-72,459
4780,3195,-72,459
4781,3195,-216,567
4782,3162,-240,567
4783,3249,-240,546
4784,3249,-255,516
4785,3348,-255,516
4786,3348,-237,525
4787,3363,-228,525
4788,3309,-228,630
4789,3309,-246,681
4790,3156,-246,681
4791,3156,-318,651
4792,3069,-501,651
4793,2937,-501,591
4794,2937,-333,675
4795,3231,-333,675
4796,3231,-168,627
4797,3498,-180,627
4798,3474,-180,555
4799,3474,-84,492
4800,3480,-84,492
4801,3480,-138,441
4802,3534,-135,441
4803,3543,-135,351
4804,3543,-45,369
4805,3438,-45,369
4806,3438,-132,471
4807,3291,-111,471
4808,3396,-111,522
4809,3396,147,522
4810,3612,147,534
4811,3612,153,480
4812,3471,69,480
4813,3090,69,450
4814,3090,96,450
4815,2898,96,489
4816,2898,174,486
4817,3231,498,486
4818,3594,498,405
4819,3594,633,405
4820,3552,633,315
4821,3552,735,366
4822,3420,996,366
4823,3369,996,294
4824,3369,969,294
4825,3369,969,264
4826,3369,1023,258
4827,3300,1524,258
4828,3300,1524,210
4829,3819,1614,210
4830,3996,1614,189
4831,3996,1860,225
4832,3762,1575,225
4833,3762,1575,195
4834,3228,1605,195
4835,3261,1605,144
4836,3261,2079,135
4837,3900,2322,135
4838,3900,2322,33
4839,4023,2280,33
4840,3531,2280,3
4841,3531,2157,108
4842,3171,2202,108
4843,3171,2202,129
4844,3174,2466,129
4845,3387,2466,129
4846,3387,2790,120
4847,3522,2850,120
4848,3522,2850,99
4849,3465,2910,99
4850,3486,2910,33
4851,3486,2946,78
4852,3363,2922,78
4853,3363,2922,78
4854,3144,2907,78
4855,3096,2907,48
4856,3096,2937,15
4857,2985,2982,15
4858,2985,2982,18
4859,2955,3084,18
4860,2928,3084,45
4861,2928,3126,33
4862,2733,3264,33
4863,2733,3264,18
4864,2589,3270,18
4865,2592,3270,-51
4866,2592,3507,-36
4867,2655,3606,-36
4868,2655,3606,-12
4869,2556,3585,-12
4870,2352,3585,78
4871,2352,3531,45
4872,2142,3531,45
4873,2142,3705,63
4874,2163,3666,63
4875,2178,3666,54
4876,2178,3984,93
4877,2235,3984,93
4878,2235,4086,39
4879,2286,4014,39
4880,2046,4014,15
4881,2046,3951,-48
4882,1899,3951,-48
4883,1899,3828,-63
4884,1665,3882,-63
4885,1698,3882,-27
4886,1698,4233,33
4887,1989,4233,33
4888,1989,4302,30
4889,2106,4245,30
4890,1854,4245,-36
4891,1854,4137,-42
4892,1593,4137,-42
4893,1593,4023,-117
4894,1458,3966,-117
4895,1428,3966,-153
4896,1428,4035,-93
4897,1509,4035,-93
4898,1509,4095,-33
4899,1491,4155,-33
4900,1368,4155,-18
4901,1368,4065,-132
4902,1056,4065,-132
4903,1056,4017,-141
4904,945,3993,-141
4905,1059,3993,-297
4906,1059,4038,-228
4907,1233,4038,-228
4908,1233,4116,-228
4909,1161,4089,-228
4910,912,4089,-192
4911,912,4143,-231
4912,768,4143,-231
4913,768,4176,-213
4914,864,4191,-213
4915,1035,4191,-231
4916,1035,4167,-183
4917,1170,4167,-183
4918,1170,4242,-63
4919,852,4272,-63
4920,519,4272,-123
4921,519,4239,-147
4922,489,4239,-147
4923,489,4146,-288
4924,732,4158,-288
4925,795,4158,-297
4926,795,4236,-297
4927,816,4236,-342
4928,816,4212,-297
4929,744,4137,-297
4930,630,4137,-303
4931,630,4155,-303
4932,540,4155,-348
4933,540,4116,-303
4934,504,4071,-303
4935,627,4071,-282
4936,627,4119,-282
4937,711,4119,-297
4938,711,4143,-291
4939,636,4113,-291
4940,543,4113,-327
4941,543,4086,-327
4942,528,4086,-342
4943,528,4080,-321
4944,501,4155,-321
4945,501,4155,-252
4946,486,4113,-252
4947,456,4113,-231
4948,456,4089,-297
4949,423,4035,-297
4950,423,4035,-369
4951,381,4059,-369
4952,387,4059,-318
4953,387,4095,-276
4954,414,4107,-276
4955,414,4107,-288
4956,528,4101,-288
4957,567,4101,-354
4958,567,4113,-318
4959,483,4071,-318
4960,483,4071,-384
4961,360,4035,-384
4962,330,4035,-357
4963,330,4059,-321
4964,327,4065,-321
4965,327,4065,-261
4966,345,4047,-261
4967,348,4047,-348
4968,348,4035,-318
4969,372,4062,-318
4970,372,4062,-297
4971,429,4065,-297
4972,312,4065,-423
4973,312,4005,-444
4974,312,4020,-444
4975,312,4020,-384
4976,441,4068,-384
4977,480,4068,-357
4978,480,4089,-393
4979,504,4116,-393
4980,504,4116,-318
4981,501,4134,-318
4982,471,4134,-297
4983,471,4065,-342
4984,378,4065,-342
4985,378,4005,-432
4986,372,4050,-432
4987,432,4050,-348
4988,432,4080,-342
4989,471,4080,-342
4990,471,4122,-393
4991,453,4113,-393
4992,471,4113,-432
4993,471,4020,-354
4994,474,4020,-354
4995,474,4089,-378
4996,414,4071,-378
4997,321,4071,-363
4998,321,4062,-369
4999,369,4062,-369
5000,369,4068,-327
5001,507,4068,-327
5002,549,4068,-387
5003,549,4107,-291
5004,498,4107,-291
5005,498,4044,-399
5006,309,4023,-399
5007,309,4023,-453
5008,309,4008,-378
5009,405,4008,-378
5010,405,4092,-378
5011,456,4134,-378
5012,450,4134,-306
5013,450,4101,-306
5014,390,4101,-339
5015,390,4038,-417
5016,381,4035,-417
5017,300,4035,-384
5018,300,4053,-384
5019,321,4053,-306
5020,321,4092,-288
5021,414,4071,-288
5022,372,4071,-354
5023,372,4095,-354
5024,360,4095,-363
5025,360,4023,-387
5026,318,4014,-387
5027,423,4014,-387
5028,423,4083,-387
5029,396,4083,-327
5030,396,4038,-321
5031,345,4056,-321
5032,414,4056,-378
5033,414,4059,-378
5034,396,4059,-363
5035,396,4098,-384
5036,417,3996,-384
5037,417,3996,-447
5038,354,3996,-447
5039,381,3996,-453
5040,381,4089,-447
5041,471,4143,-447
5042,471,4143,-339
5043,450,4098,-339
5044,327,4098,-402
5045,327,4062,-384
5046,360,4068,-384
5047,360,4068,-423
5048,384,4113,-423
5049,453,4113,-384
5050,453,4068,-363
5051,441,4140,-363
5052,441,4140,-333
5053,468,4086,-333
5054,429,4086,-378
5055,429,4059,-339
5056,390,4062,-339
5057,390,4062,-423
5058,408,4122,-423
5059,429,4122,-321
5060,429,4056,-399
5061,465,4092,-399
5062,465,4092,-408
5063,420,4032,-408
5064,408,4032,-417
5065,408,4080,-387
5066,402,4065,-387
5067,402,4065,-423
5068,336,4098,-423
5069,336,4098,-423
5070,336,4056,-384
5071,420,4056,-384
5072,420,4068,-363
5073,423,4095,-363
5074,369,4095,-402
5075,369,4074,-444
5076,267,4074,-444
5077,267,4110,-402
5078,300,4059,-402
5079,447,4059,-429
5080,447,4050,-363
5081,435,4050,-363
5082,435,4041,-408
5083,330,4062,-408
5084,282,4062,-342
5085,282,4101,-363
5086,300,4101,-363
5087,300,4008,-444
5088,363,4062,-444
5089,420,4062,-393
5090,420,4080,-387
5091,387,4080,-387
5092,387,4086,-384
5093,297,4056,-384
5094,366,4056,-447
5095,366,4074,-393
5096,390,4074,-393
5097,390,4056,-348
5098,399,4083,-348
5099,432,4083,-363
5100,432,4083,-369
5101,423,4083,-369
5102,423,4101,-414
5103,354,4035,-414
5104,279,4035,-402
5105,279,4023,-432
5106,381,4023,-432
5107,381,4095,-357
5108,387,4098,-357
5109,333,4098,-339
5110,333,4083,-339
5111,303,4083,-387
5112,303,4023,-489
5113,369,4017,-489
5114,420,4017,-438
5115,420,4080,-438
5116,405,4080,-423
5117,405,4065,-402
5118,303,4059,-402
5119,369,4059,-432
5120,369,4065,-432
5121,453,4065,-432
5122,453,4047,-372
5123,408,4080,-372
5124,390,4080,-414
5125,390,4083,-414
5126,399,4083,-423
5127,399,4080,-417
5128,396,4056,-417
5129,429,4056,-432
5130,429,4071,-432
5131,429,4071,-453
5132,429,4104,-414
5133,432,4095,-414
5134,432,4095,-402
5135,408,4044,-402
5136,399,4044,-414
5137,399,4065,-444
5138,423,4068,-444
5139,423,4068,-402
5140,420,4044,-402
5141,366,4044,-447
5142,366,4050,-459
5143,363,4056,-459
5144,363,4056,-462
5145,372,4059,-462
5146,378,4059,-354
5147,378,4041,-453
5148,309,4017,-453
5149,309,4017,-399
5150,351,4068,-399
5151,354,4068,-384
5152,354,4116,-369
5153,360,4143,-369
5154,360,4143,-303
5155,297,4095,-303
5156,300,4095,-399
5157,300,4059,-429
5158,315,4044,-429
5159,315,4044,-348
5160,408,4107,-348
5161,372,4107,-372
5162,372,4092,-312
5163,279,4080,-312
5164,279,4080,-288
5165,276,4089,-288
5166,339,4089,-312
5167,339,4080,-303
5168,369,4137,-303
5169,369,4137,-399
5170,315,4080,-399
5171,243,4080,-372
5172,243,4011,-402
5173,276,4044,-402
5174,276,4044,-342
5175,417,4104,-342
5176,321,4104,-372
5177,321,4086,-372
5178,297,4020,-372
5179,297,4020,-387
5180,312,4014,-387
5181,303,4014,-387
5182,303,4092,-402
5183,378,4095,-402
5184,378,4095,-399
5185,363,4131,-399
5186,381,4131,-408
5187,381,4074,-402
5188,417,4125,-402
5189,417,4125,-414
5190,366,4092,-414
5191,348,4092,-372
5192,348,4065,-387
5193,330,4065,-387
5194,330,4104,-429
5195,423,4074,-429
5196,420,4074,-372
5197,420,4068,-378
5198,360,4068,-378
5199,360,4041,-399
5200,282,4002,-399
5201,330,4002,-423
5202,330,4104,-321
5203,378,4104,-321
5204,378,4086,-432
5205,402,4068,-432
5206,351,4068,-408
5207,351,4062,-393
5208,345,4062,-393
5209,345,4065,-429
5210,327,4122,-429
5211,420,4122,-417
5212,420,4107,-369
5213,378,4107,-369
5214,378,4029,-393
5215,387,4050,-393
5216,435,4050,-429
5217,435,4098,-408
5218,474,4098,-408
5219,474,4083,-423
5220,387,4095,-423
5221,471,4095,-414
5222,471,4095,-408
5223,420,4095,-408
5224,420,4101,-387
5225,465,4047,-387
5226,429,4047,-384
5227,429,4083,-438
5228,468,4083,-438
5229,468,4083,-453
5230,453,4110,-453
5231,486,4110,-417
5232,486,4074,-399
5233,540,4074,-399
5234,540,4056,-492
5235,501,4047,-492
5236,468,4047,-537
5237,468,4074,-477
5238,492,4074,-477
5239,492,4140,-393
5240,591,4191,-393
5241,645,4191,-429
5242,645,4146,-498
5243,621,4146,-498
5244,621,4113,-549
5245,630,4152,-549
5246,879,4152,-444
5247,879,4398,-414
5248,1113,4398,-414
5249,1113,4299,-453
5250,1095,4170,-453
5251,906,4170,-549
5252,906,4200,-519
5253,954,4200,-519
5254,954,4221,-498
5255,1311,4317,-498
5256,1497,4317,-444
5257,1497,4299,-339
5258,1455,4299,-339
5259,1455,4272,-402
5260,1245,4170,-402
5261,1164,4170,-483
5262,1164,4137,-513
5263,1416,4137,-513
5264,1416,4224,-342
5265,1755,4254,-342
5266,1818,4254,-282
5267,1818,4299,-393
5268,1779,4299,-393
5269,1779,4146,-444
5270,1791,4146,-444
5271,1866,4146,-483
5272,1866,4125,-483
5273,1851,4125,-408
5274,1851,4092,-369
5275,2037,4083,-369
5276,2112,4083,-447
5277,2112,4011,-447
5278,1797,4011,-447
5279,1797,3879,-489
5280,1851,3825,-489
5281,2001,3825,-543
5282,2001,3837,-543
5283,2175,3837,-537
5284,2175,3756,-498
5285,2394,3744,-498
5286,2517,3744,-504
5287,2517,3642,-504
5288,2484,3642,-447
5289,2484,3735,-534
5290,2622,3678,-534
5291,2688,3678,-624
5292,2688,3345,-624
5293,2556,3345,-609
5294,2556,3198,-660
5295,2709,3282,-660
5296,2898,3282,-492
5297,2898,3243,-492
5298,3090,3243,-534
5299,3090,3141,-582
5300,3105,2928,-582
5301,2946,2928,-567
5302,2946,2862,-567
5303,3075,2862,-597
5304,3075,2901,-582
5305,3396,2790,-582
5306,3570,2790,-603
5307,3570,2787,-603
5308,3654,2787,-543
5309,3654,2688,-573
5310,3495,2388,-573
5311,3258,2388,-552
5312,3258,2421,-552
5313,3591,2421,-378
5314,3591,2520,-303
5315,3987,2457,-303
5316,4149,2457,-267
5317,4149,2304,-267
5318,3813,2304,-342
5319,3813,1842,-306
5320,3246,1803,-306
5321,3246,1803,-171
5322,3420,1668,-171
5323,3774,1668,-102
5324,3774,1653,-42
5325,3825,1398,-42
5326,3825,1398,-18
5327,3738,1287,-18
5328,3498,1287,75
5329,3498,1023,90
5330,3294,1008,90
5331,3294,1008,39
5332,3351,843,39
5333,3396,843,195
5334,3396,879,213
5335,3486,780,213
5336,3486,780,258
5337,3501,468,258
5338,3480,468,288
5339,3480,420,303
5340,3294,171,303
5341,3294,171,330
5342,3000,183,330
5343,3192,183,321
5344,3192,87,264
5345,3540,-147,264
5346,3540,-147,315
5347,3516,-93,315
5348,3309,-93,465
5349,3309,-354,501
5350,2955,-459,501
5351,2955,-459,501
5352,2904,-597,501
5353,2997,-597,495
5354,2997,-498,591
5355,3174,-558,591
5356,3174,-558,621
5357,2958,-576,621
5358,2796,-576,612
5359,2796,-597,615
5360,2859,-663,615
5361,2859,-663,561
5362,2793,-609,561
5363,2895,-609,495
5364,2895,-459,501
5365,3330,-267,501
5366,3330,-267,405
5367,3441,-246,405
5368,3315,-246,390
5369,3315,-306,324
5370,3162,-162,324
5371,3162,-162,399
5372,3414,-69,399
5373,3492,-69,384
5374,3492,90,384
5375,3522,66,384
5376,3522,66,441
5377,3672,321,441
5378,3723,321,324
5379,3723,345,279
5380,3510,345,279
5381,3510,219,273
5382,3333,351,273
5383,3297,351,303
5384,3297,663,351
5385,3543,663,351
5386,3543,933,339
5387,3963,1131,339
5388,4014,1131,258
5389,4014,1386,264
5390,4083,1386,264
5391,4083,1101,153
5392,3618,1164,153
5393,3432,1164,219
5394,3432,1479,213
5395,3690,1479,213
5396,3690,1566,204
5397,3906,1752,204
5398,4083,1752,219
5399,4083,1905,150
5400,3936,1905,150
5401,3936,1830,138
5402,3807,1956,138
5403,3696,1956,75
5404,3696,2058,54
5405,3843,2058,54
5406,3843,2046,144
5407,3630,2064,144
5408,3273,2064,135
5409,3273,1941,135
5410,3165,1941,105
5411,3165,2220,165
5412,3222,2238,165
5413,3108,2238,150
5414,3108,2406,150
5415,3003,2406,108
5416,3003,2448,90
5417,2901,2742,90
5418,2967,2742,33
5419,2967,2781,33
5420,3060,2781,-57
5421,3060,2973,-51
5422,2961,3102,-51
5423,2910,3102,-78
5424,2910,3123,-78
5425,2817,3123,-87
5426,2817,3198,-33
5427,2721,3174,-33
5428,2730,3174,-12
5429,2730,3534,-12
5430,2811,3534,-48
5431,2811,3696,-12
5432,2949,3741,-12
5433,2826,3741,-132
5434,2826,3633,-132
5435,2532,3633,-156
5436,2532,3492,-156
5437,2394,3438,-156
5438,2394,3438,-138
5439,2274,3729,-138
5440,2313,3729,-12
5441,2313,3867,99
5442,2346,3945,99
5443,2346,3945,-6
5444,2532,4047,-6
5445,2427,4047,-72
5446,2427,4053,-63
5447,2190,3942,-63
5448,2190,3942,-153
5449,1971,3909,-153
5450,1914,3909,-132
5451,1914,3804,-147
5452,1848,3795,-147
5453,1848,3795,-81
5454,1725,3906,-81
5455,1593,3906,9
5456,1593,4080,-12
5457,1671,4053,-12
5458,1671,4053,-147
5459,1623,4029,-147
5460,1500,4029,-102
5461,1500,3966,-213
5462,1389,3963,-213
5463,1389,3963,-183
5464,1311,3981,-183
5465,1278,3981,-177
5466,1278,4218,-243
5467,1365,4239,-243
5468,1365,4239,-252
5469,1338,4137,-252
5470,1260,4137,-354
5471,1260,4059,-387
5472,1053,4086,-387
5473,1053,4086,-252
5474,1068,4131,-252
5475,984,4131,-228
5476,984,4101,-162
5477,843,4101,-162
5478,843,4083,-123
5479,810,4116,-123
5480,729,4116,-153
5481,729,4107,-207
5482,795,4107,-207
5483,795,4107,-273
5484,912,4119,-273
5485,924,4119,-183
5486,924,4158,-156
5487,885,4158,-156
5488,885,4251,-87
5489,786,4299,-87
5490,699,4299,-102
5491,699,4239,-201
5492,762,4239,-201
5493,762,4227,-237
5494,810,4275,-237
5495,828,4275,-312
5496,828,4215,-348
5497,696,4215,-348
5498,696,4137,-378
5499,567,4146,-378
5500,576,4146,-384
5501,576,4227,-369
5502,657,4227,-369
5503,657,4248,-393
5504,744,4212,-393
5505,744,4212,-378
5506,744,4089,-357
5507,588,4089,-357
5508,588,4029,-318
5509,345,4062,-318
5510,315,4062,-321
5511,315,4065,-321
5512,210,4065,-321
5513,210,4083,-372
5514,315,4122,-372
5515,363,4122,-258
5516,363,4188,-258
5517,387,4188,-306
5518,387,4275,-414
5519,279,4161,-414
5520,192,4161,-447
5521,192,4083,-447
5522,162,4083,-417
5523,162,4086,-423
5524,213,4200,-423
5525,264,4200,-288
5526,264,4236,-288
5527,363,4236,-276
5528,363,4293,-306
5529,333,4224,-306
5530,207,4224,-297
5531,207,4224,-297
5532,225,4224,-321
5533,225,4278,-231
5534,270,4248,-231
5535,321,4248,-261
5536,321,4215,-261
5537,318,4215,-288
5538,318,4152,-303
5539,279,4092,-303
5540,366,4092,-312
5541,366,4092,-312
5542,390,4092,-306
5543,390,4098,-273
5544,459,4167,-273
5545,459,4167,-384
5546,348,4134,-384
5547,315,4134,-444
5548,315,4089,-387
5549,294,4083,-387
5550,294,4083,-429
5551,297,4038,-429
5552,261,4038,-459
5553,261,4098,-474
5554,378,4143,-474
5555,378,4143,-429
5556,369,4188,-429
5557,153,4188,-417
5558,153,4125,-429
5559,228,4080,-429
5560,228,4080,-357
5561,378,4083,-357
5562,312,4083,-273
5563,312,4191,-186
5564,153,4191,-186
5565,153,4191,-201
5566,78,4248,-201
5567,312,4248,-198
5568,312,4374,-252
5569,315,4548,-252
5570,315,4548,-291
5571,39,4491,-291
5572,-57,4491,-507
5573,-57,4419,-534
5574,-24,4419,-534
5575,-24,4422,-483
5576,129,4389,-483
5577,225,4389,-354
5578,225,4134,-288
5579,162,4134,-288
5580,162,3825,-156
5581,141,3681,-156
5582,144,3681,-117
5583,144,3729,18
5584,159,3729,18
5585,159,3813,30
5586,30,3780,30
5587,-45,3780,-57
5588,-45,3711,-201
5589,108,3711,-201
5590,108,3750,-162
5591,198,3951,-162
5592,114,3951,-213
5593,114,4044,-183
5594,24,4044,-183
5595,24,3954,-246
5596,189,3936,-246
5597,378,3936,-243
5598,378,4041,-207
5599,327,4041,-207
5600,327,4164,-93
5601,180,4092,-93
5602,96,4092,-18
5603,96,4032,-18
5604,363,4032,-27
5605,363,4038,39
5606,432,4188,39
5607,288,4188,174
5608,288,4167,174
5609,144,4167,195
5610,144,3915,33
5611,141,3798,33
5612,45,3798,48
5613,45,3906,48
5614,-9,3906,33
5615,-9,4098,174
5616,219,4215,174
5617,219,4215,204
5618,126,4149,204
5619,90,4149,180
5620,90,4047,0
5621,168,3927,0
5622,168,3927,-141
5623,51,3867,-141
5624,147,3867,-102
5625,147,3870,90
5626,216,3831,90
5627,216,3831,129
5628,42,3837,129
5629,48,3837,195
5630,48,3828,210
5631,363,3870,210
5632,363,3870,204
5633,366,3852,204
5634,138,3852,228
5635,138,3939,123
5636,-186,3921,123
5637,-186,3921,-51
5638,-255,4110,-51
5639,33,4110,-111
5640,33,4404,-183
5641,114,4671,-183
5642,114,4671,-306
5643,-66,4539,-306
5644,-156,4539,-459
5645,-156,4281,-549
5646,84,4074,-549
5647,84,4074,-462
5648,270,4143,-462
5649,174,4143,-372
5650,174,4161,-207
5651,27,4053,-207
5652,27,4053,-252
5653,123,3939,-252
5654,90,3939,-213
5655,90,4011,-183
5656,-201,4011,-183
5657,-201,3960,-237
5658,-240,3843,-237
5659,-84,3843,-267
5660,-84,3759,-282
5661,96,3759,-282
5662,96,3681,-291
5663,6,3612,-291
5664,-300,3612,-162
5665,-300,3396,-132
5666,-558,3396,-132
5667,-558,3078,-357
5668,-639,3564,-357
5669,327,3564,-369
5670,327,4539,-36
5671,1281,4539,-36
5672,1281,5181,90
5673,1227,4983,90
5674,297,4983,-168
5675,297,4209,-534
5676,-153,4209,-534
5677,-153,3984,-612
5678,-150,4368,-612
5679,333,4368,-399
5680,333,4656,-222
5681,555,4656,-222
5682,555,4491,-171
5683,483,4206,-171
5684,102,4206,-123
5685,102,4221,-87
5686,-42,4221,-87
5687,-42,4281,-81
5688,0,4296,-81
5689,-30,4296,-21
5690,-30,4164,-78
5691,-114,4164,-78
5692,-114,3909,-138
5693,-156,3852,-138
5694,-27,3852,-216
5695,-27,3858,-216
5696,51,3858,-213
5697,51,3858,-177
5698,15,3804,-177
5699,-162,3804,-282
5700,-162,3882,-282
5701,-138,3882,-213
5702,-138,4035,-153
5703,261,4107,-153
5704,390,4107,-72
5705,390,4263,-72
5706,-48,4263,-126
5707,-48,4248,-258
5708,-258,4002,-258
5709,108,4002,-408
5710,108,4143,-408
5711,423,4143,-372
5712,423,4404,-198
5713,498,4440,-198
5714,498,4440,-231
5715,243,4122,-231
5716,63,4122,-393
5717,63,3912,-447
5718,123,3954,-447
5719,123,3954,-333
5720,96,3903,-333
5721,123,3903,-342
5722,123,3999,-216
5723,192,4074,-216
5724,192,4074,-261
5725,-12,4083,-261
5726,-114,4083,-252
5727,-114,3999,-267
5728,69,4038,-267
5729,69,4038,-213
5730,243,4122,-213
5731,297,4122,-213
5732,297,4203,-228
5733,225,4140,-228
5734,225,4140,-273
5735,75,4095,-273
5736,0,4095,-222
5737,0,4152,-177
5738,75,4137,-177
5739,75,4137,-207
5740,24,4089,-207
5741,15,4089,-306
5742,15,3948,-321
5743,156,3960,-321
5744,156,3960,-288
5745,144,4032,-288
5746,-12,4032,-339
5747,-12,4002,-216
5748,45,3954,-216
5749,45,3954,-267
5750,39,4104,-267
5751,-30,4104,-222
5752,-30,4215,-222
5753,-9,4215,-222
5754,-9,4260,-138
5755,-6,4062,-138
5756,15,4062,-276
5757,15,3906,-276
5758,18,3906,-276
5759,18,3966,-228
5760,-24,3960,-228
5761,6,3960,-207
5762,6,3912,-267
5763,75,3912,-267
5764,75,3972,-186
5765,207,4167,-186
5766,159,4167,-171
5767,159,4374,-246
5768,15,4374,-246
5769,15,4398,-333
5770,96,4287,-333
5771,141,4287,-504
5772,141,4272,-477
5773,180,4272,-477
5774,180,4380,-468
5775,327,4338,-468
5776,327,4338,-423
5777,327,4245,-378
5778,216,4245,-378
5779,216,4131,-246
5780,195,4107,-246
5781,222,4107,-222
5782,222,4122,-222
5783,96,4122,-138
5784,96,4089,-213
5785,18,4029,-213
5786,33,4029,-267
5787,33,3996,-267
5788,129,3996,-348
5789,129,4005,-303
5790,-78,4047,-303
5791,-129,4047,-291
5792,-129,3762,-291
5793,-162,3762,-399
5794,-162,3675,-477
5795,-12,3834,-477
5796,-12,3834,-333
5797,63,4005,-333
5798,165,4005,-228
5799,165,4116,-378
5800,183,4098,-378
5801,183,4098,-507
5802,69,4116,-507
5803,78,4116,-609
5804,78,4269,-597
5805,162,4263,-597
5806,162,4263,-573
5807,189,4161,-573
5808,399,4161,-549
5809,399,4200,-609
5810,612,4221,-609
5811,612,4221,-528
5812,405,4251,-528
5813,555,4251,-462
5814,555,4329,-462
5815,888,4455,-462
5816,888,4455,-378
5817,1077,4623,-378
5818,1338,4623,-393
5819,1338,4809,-444
5820,1659,4680,-444
5821,1659,4680,-528
5822,1551,4605,-528
5823,1473,4605,-609
5824,1473,4461,-519
5825,1458,4629,-519
5826,1458,4629,-387
5827,1746,5001,-387
5828,2232,5001,-168
5829,2232,5142,-228
5830,1863,4794,-228
5831,1863,4794,-528
5832,1281,4389,-528
5833,1320,4389,-684
5834,1320,4401,-558
5835,1791,4662,-558
5836,1791,4662,-378
5837,2175,4839,-378
5838,2157,4839,-333
5839,2157,4728,-414
5840,1932,4710,-414
5841,1932,4710,-483
5842,1953,4674,-483
5843,2190,4674,-519
5844,2190,4449,-552
5845,2034,4449,-552
5846,2034,4377,-477
5847,2061,4200,-477
5848,2070,4200,-354
5849,2070,4284,-213
5850,2343,4284,-213
5851,2343,4116,-291
5852,2466,4023,-291
5853,2409,4023,-303
5854,2409,3549,-327
5855,2388,3549,-327
5856,2388,3219,-243
5857,2577,3258,-243
5858,2934,3258,-12
5859,2934,3474,63
5860,3093,3474,63
5861,3093,3345,-33
5862,2982,2868,-33
5863,2652,2868,-186
5864,2652,2439,-192
5865,2571,2439,-192
5866,2571,2178,-261
5867,2712,2196,-261
5868,3123,2196,-96
5869,3123,2235,-57
5870,3393,2235,-57
5871,3393,2055,-81
5872,3345,1803,-81
5873,3015,1803,-81
5874,3015,1467,-33
5875,2808,1467,-33
5876,2808,1278,75
5877,2976,1260,75
5878,3291,1260,138
5879,3291,1413,159
5880,3486,1413,159
5881,3486,1023,129
5882,3537,861,129
5883,3411,861,210
5884,3411,855,309
5885,3333,855,309
5886,3333,804,285
5887,3609,771,285
5888,3744,771,474
5889,3744,561,420
5890,3732,561,420
5891,3732,555,399
5892,3642,123,399
5893,3399,123,429
5894,3399,102,465
5895,3534,102,465
5896,3534,207,591
5897,3843,396,591
5898,4107,396,615
5899,4107,3,615
5900,3900,3,540
5901,3900,-42,561
5902,3642,-279,561
5903,3348,-279,570
5904,3348,-510,570
5905,3429,-510,660
5906,3429,-276,801
5907,3723,-453,801
5908,3531,-453,822
5909,3531,-630,822
5910,3330,-630,912
5911,3330,-627,996
5912,3216,-801,996
5913,2859,-801,993
5914,2859,-1044,993
5915,2508,-1044,906
5916,2508,-942,1053
5917,2493,-993,1053
5918,2463,-993,1122
5919,2463,-1020,1122
5920,2364,-1020,1131
5921,2364,-1107,1026
5922,2166,-1065,1026
5923,2325,-1065,996
5924,2325,-741,996
5925,2970,-741,921
5926,2970,-387,726
5927,3372,-426,726
5928,3174,-426,621
5929,3174,-510,621
5930,2907,-510,627
5931,2907,-474,459
5932,3018,-306,459
5933,3105,-306,525
5934,3105,-9,525
5935,3351,-9,585
5936,3351,9,546
5937,3531,66,546
5938,3255,66,534
5939,3255,30,534
5940,2682,30,570
5941,2682,-39,540
5942,2901,1149,540
5943,4212,1149,561
5944,4212,1029,561
5945,4119,1029,471
5946,4119,1092,642
5947,3774,1254,642
5948,3774,1254,501
5949,3438,933,501
5950,3213,933,369
5951,3213,1554,240
5952,3696,1410,240
5953,3696,1410,84
5954,3600,1632,84
5955,3480,1632,174
5956,3480,1863,264
5957,3519,2025,264
5958,3519,2025,225
5959,3708,2214,225
5960,3648,2214,9
5961,3648,2046,-21
5962,3162,2148,-21
5963,3162,2148,48
5964,3057,2577,48
5965,3420,2577,-42
5966,3420,2862,-111
5967,3678,2979,-111
5968,3678,2979,-168
5969,3447,2838,-168
5970,3003,2838,-261
5971,3003,2679,-183
5972,2799,2961,-183
5973,2799,2961,-177
5974,3036,3240,-177
5975,3294,3240,-57
5976,3294,3489,-126
5977,3081,3519,-126
5978,3081,3519,-162
5979,2826,3537,-162
5980,2766,3537,-213
5981,2766,3525,-303
5982,2796,3525,-303
5983,2796,3675,-87
5984,2694,3912,-87
5985,2622,3912,-57
5986,2622,3906,-168
5987,2259,3906,-168
5988,2259,3738,-297
5989,2043,3630,-297
5990,1812,3630,-333
5991,1812,3675,-282
5992,1695,3675,-282
5993,1695,3912,-78
5994,1662,4407,-78
5995,1899,4407,63
5996,1899,4836,30
5997,2253,4836,30
5998,2253,4743,-207
5999,2193,4509,-207
6000,1896,4509,-453
6001,1896,4398,-573
6002,1686,4398,-573
6003,1686,4467,-642
6004,1746,4464,-642
6005,1866,4464,-639
6006,1866,4452,-639
6007,1911,4452,-639
6008,1911,4563,-498
6009,1830,4566,-498
6010,1644,4566,-462
6011,1644,4479,-423
6012,1380,4479,-423
6013,1380,4404,-528
6014,1119,4299,-528
6015,1071,4299,-588
6016,1071,4143,-609
6017,1074,4143,-609
6018,1074,4104,-537
6019,906,4125,-537
6020,765,4125,-504
6021,765,4155,-444
6022,774,4155,-444
6023,774,4098,-459
6024,795,4104,-459
6025,735,4104,-534
6026,735,3999,-534
6027,570,3999,-534
6028,570,3960,-633
6029,318,3900,-633
6030,270,3900,-669
6031,270,3885,-669
6032,450,3885,-564
6033,450,4263,-303
6034,576,4389,-303
6035,618,4389,-171
6036,618,4314,-171
6037,312,4314,-168
6038,312,4131,-354
6039,-144,3933,-354
6040,-249,3933,-387
6041,-249,3915,-387
6042,9,3915,-297
6043,9,4029,-171
6044,174,4119,-171
6045,108,4119,-93
6046,108,4122,-93
6047,105,4122,-117
6048,105,4140,-72
6049,252,4188,-72
6050,252,4188,-36
6051,360,4290,-36
6052,261,4290,-87
6053,261,4368,-141
6054,183,4323,-141
6055,183,4323,-117
6056,198,4413,-117
6057,252,4413,-108
6058,252,4395,-63
6059,189,4395,-63
6060,189,4395,-6
6061,165,4308,-6
6062,21,4308,-21
6063,21,4305,-27
6064,45,4233,-27
6065,45,4233,-51
6066,174,4350,-51
6067,129,4350,-78
6068,129,4167,-147
6069,-99,4131,-147
6070,-99,4131,-96
6071,-327,4149,-96
6072,-318,4149,-123
6073,-318,4161,-192
6074,-231,4134,-192
6075,-231,4134,-192
6076,-78,4206,-192
6077,-48,4206,-273
6078,-48,4170,-276
6079,-27,4179,-276
6080,-27,4179,-207
6081,75,4119,-207
6082,123,4119,-252
6083,123,4053,-288
6084,54,3996,-288
6085,54,3996,-231
6086,120,3915,-231
6087,156,3915,-216
6088,156,3963,-192
6089,240,3963,-192
6090,240,3945,-222
6091,210,3885,-222
6092,45,3885,-306
6093,45,3807,-321
6094,57,3807,-321
6095,57,3861,-348
6096,54,3921,-348
6097,174,3921,-312
6098,174,3921,-438
6099,144,3921,-438
6100,144,3990,-414
6101,216,4029,-414
6102,195,4029,-438
6103,195,4068,-444
6104,0,4068,-444
6105,0,3966,-387
6106,-51,4062,-387
6107,21,4062,-321
6108,21,4167,-321
6109,21,4167,-321
6110,21,4170,-276
6111,21,4047,-276
6112,-6,4047,-276
6113,-6,4014,-237
6114,-45,4014,-237
6115,-45,4044,-138
6116,-12,4008,-138
6117,-15,4008,-153
6118,-15,4008,-96
6119,-18,4008,-96
6120,-18,4107,-42
6121,-138,4113,-42
6122,-204,4113,-222
6123,-204,3954,-357
6124,-6,3954,-357
6125,-6,3993,-348
6126,114,4137,-348
6127,162,4137,-252
6128,162,4131,-306
6129,87,4131,-306
6130,87,4086,-261
6131,21,4047,-261
6132,39,4047,-333
6133,39,4056,-297
6134,63,4056,-297
6135,63,4098,-372
6136,57,4101,-372
6137,-18,4101,-288
6138,-18,4032,-288
6139,-6,4032,-333
6140,-6,4017,-327
6141,0,3987,-327
6142,15,3987,-363
6143,15,3954,-363
6144,72,3954,-333
6145,72,3948,-276
6146,21,4032,-276
6147,42,4032,-282
6148,42,4050,-282
6149,75,4050,-267
6150,75,4041,-312
6151,27,4131,-312
6152,96,4131,-276
6153,96,4206,-276
6154,87,4206,-282
6155,87,4236,-363
6156,210,4134,-363
6157,279,4134,-429
6158,279,4155,-429
6159,249,4155,-354
6160,249,4104,-291
6161,138,4074,-291
6162,-6,4074,-327
6163,-6,4083,-327
6164,-180,4083,-216
6165,-180,4125,-258
6166,-105,4026,-258
6167,-15,4026,-276
6168,-15,4068,-276
6169,33,4068,-372
6170,33,4029,-393
6171,-120,4098,-393
6172,-114,4098,-339
6173,-114,4116,-339
6174,-18,4116,-447
6175,-18,4200,-384
6176,-12,4281,-384
6177,42,4281,-318
6178,42,4296,-318
6179,21,4296,-399
6180,21,4158,-417
6181,-69,4161,-417
6182,-69,4161,-363
6183,0,4050,-363
6184,129,4050,-363
6185,129,4089,-312
6186,132,4071,-312
6187,132,4071,-297
6188,147,4080,-297
6189,57,4080,-228
6190,57,4107,-201
6191,-36,4155,-201
6192,-36,4155,-231
6193,-138,4167,-231
6194,-60,4167,-333
6195,-60,4131,-342
6196,21,4080,-342
6197,21,4080,-384
6198,-18,4032,-384
6199,-87,4032,-321
6200,-87,4059,-282
6201,-147,4044,-282
6202,-147,4044,-291
6203,-225,4080,-291
6204,-132,4080,-267
6205,-132,4164,-318
6206,-57,4206,-318
6207,-57,4206,-348
6208,-81,4137,-348
6209,-219,4137,-399
6210,-219,4182,-372
6211,-84,4236,-372
6212,-84,4236,-333
6213,21,4134,-333
6214,-66,4134,-342
6215,-66,4167,-333
6216,39,4182,-333
6217,39,4182,-282
6218,60,4158,-282
6219,69,4158,-339
6220,69,4044,-342
6221,-33,4008,-342
6222,-33,4008,-288
6223,3,4107,-288
6224,51,4107,-318
6225,51,4098,-342
6226,27,4074,-342
6227,27,4074,-333
6228,18,4080,-333
6229,45,4080,-399
6230,45,4038,-447
6231,21,4038,-447
6232,21,4014,-549
6233,-93,4035,-549
6234,-69,4035,-399
6235,-69,4005,-357
6236,-87,4005,-357
6237,-87,3999,-417
6238,-126,4014,-417
6239,-114,4014,-297
6240,-114,4044,-312
6241,-93,4044,-312
6242,-93,4011,-408
6243,-111,3984,-408
6244,-156,3984,-363
6245,-156,4056,-327
6246,-18,4056,-327
6247,-18,4080,-303
6248,84,4086,-303
6249,102,4086,-357
6250,102,4080,-423
6251,75,4080,-423
6252,75,4050,-357
6253,36,4032,-357
6254,24,4032,-318
6255,24,4107,-273
6256,138,4107,-273
6257,138,4104,-261
6258,147,4152,-261
6259,141,4152,-258
6260,141,4110,-354
6261,123,4110,-354
6262,123,4125,-357
6263,45,4140,-357
6264,132,4140,-357
6265,132,4155,-342
6266,141,4155,-342
6267,141,4098,-357
6268,84,4095,-357
6269,18,4095,-378
6270,18,4098,-402
6271,9,4098,-402
6272,9,4011,-393
6273,-6,4083,-393
6274,72,4083,-342
6275,72,4035,-342
6276,60,4035,-354
6277,60,4110,-354
6278,18,4059,-354
6279,-12,4059,-387
6280,-12,4089,-387
6281,39,4089,-333
6282,39,4074,-369
6283,96,4074,-369
6284,39,4074,-327
6285,39,4122,-327
6286,39,4122,-303
6287,39,4068,-354
6288,9,4071,-354
6289,0,4071,-291
6290,0,4056,-291
6291,21,4056,-357
6292,21,4065,-384
6293,87,4071,-384
6294,141,4071,-384
6295,141,4089,-384
6296,93,4089,-327
6297,93,4074,-363
6298,57,4149,-363
6299,39,4149,-276
6300,39,4203,-276
6301,24,4203,-312
6302,24,4149,-372
6303,57,4119,-372
6304,72,4119,-468
6305,72,4116,-468
6306,-42,4116,-462
6307,-42,4083,-477
6308,-87,4074,-477
6309,-87,4074,-483
6310,-81,4077,-483
6311,-12,4077,-333
6312,-12,4059,-327
6313,-33,4080,-327
6314,-33,4080,-423
6315,-105,4035,-423
6316,-99,4035,-432
6317,-99,4053,-468
6318,-66,4089,-468
6319,-66,4089,-417
6320,-99,4191,-417
6321,-27,4191,-348
6322,-27,4191,-453
6323,-81,4158,-453
6324,-81,4158,-417
6325,-81,4044,-417
6326,-42,4044,-393
6327,-42,4041,-402
6328,33,4131,-402
6329,33,4131,-288
6330,-45,4047,-288
6331,-63,4047,-276
6332,-63,4026,-303
6333,3,4068,-303
6334,3,4068,-261
6335,39,4119,-261
6336,6,4119,-237
6337,6,4092,-342
6338,-27,4068,-342
6339,-27,4068,-504
6340,-60,4092,-504
6341,-15,4092,-357
6342,-15,4134,-393
6343,-18,4125,-393
6344,-18,4125,-387
6345,0,4107,-387
6346,-51,4107,-438
6347,-51,4110,-459
6348,-78,4110,-459
6349,-78,4080,-474
6350,-48,4068,-474
6351,63,4068,-432
6352,63,4134,-492
6353,210,4134,-492
6354,210,4200,-372
6355,471,4323,-372
6356,510,4323,-372
6357,510,4335,-492
6358,747,4335,-492
6359,747,4326,-678
6360,1053,4308,-678
6361,1464,4308,-699
6362,1464,4428,-684
6363,1638,4428,-684
6364,1638,4581,-642
6365,1569,4731,-642
6366,1503,4731,-624
6367,1503,4632,-783
6368,1521,4632,-783
6369,1521,4671,-828
6370,1536,4722,-828
6371,1791,4722,-834
6372,1791,4758,-855
6373,1797,4758,-855
6374,1797,4677,-879
6375,1635,4659,-879
6376,1488,4659,-810
6377,1488,4599,-858
6378,1518,4599,-858
6379,1518,4497,-888
6380,1584,4461,-888
6381,1773,4461,-858
6382,1773,4461,-825
6383,1758,4461,-825
6384,1758,4464,-750
6385,1560,4260,-750
6386,1215,4260,-753
6387,1215,4113,-738
6388,1371,4113,-738
6389,1371,4047,-690
6390,1917,4110,-690
6391,2547,4110,-588
6392,2547,4194,-564
6393,2922,4194,-564
6394,2922,4272,-537
6395,2502,3855,-537
6396,1875,3855,-618
6397,1875,3492,-612
6398,1962,3492,-612
6399,1962,3462,-393
6400,2673,3456,-393
6401,3057,3456,-273
6402,3057,3600,-147
6403,3213,3600,-147
6404,3213,3345,-258
6405,2928,3192,-258
6406,2832,3192,-327
6407,2832,2973,-327
6408,2847,2973,-357
6409,2847,2583,-339
6410,2943,2601,-339
6411,3345,2601,-192
6412,3345,2718,-192
6413,3531,2718,-171
6414,3531,2502,-228
6415,3408,2157,-228
6416,3177,2157,-168
6417,3177,2112,-168
6418,3168,2112,-108
6419,3168,1920,-66
6420,3381,1908,-66
6421,3498,1908,30
6422,3498,1581,30
6423,3480,1581,105
6424,3480,1470,54
6425,3096,1218,54
6426,2997,1218,135
6427,2997,1203,135
6428,3246,1203,189
6429,3246,1101,240
6430,3420,1008,240
6431,3420,1008,273
6432,3486,831,273
6433,3519,831,303
6434,3519,726,330
6435,3123,420,330
6436,3123,420,414
6437,2709,399,414
6438,3024,399,480
6439,3024,186,501
6440,3195,444,501
6441,3195,444,546
6442,3498,261,546
6443,3531,261,570
6444,3531,159,615
6445,3195,-12,615
6446,3195,-12,705
6447,2862,-117,705
6448,3021,-117,636
6449,3021,-144,732
6450,3153,-150,732
6451,3153,-150,720
6452,3192,-198,720
6453,3018,-198,867
6454,3018,-141,873
6455,2940,-252,873
6456,2940,-252,948
6457,2709,-222,948
6458,2655,-222,861
6459,2655,-36,786
6460,3072,126,786
6461,3072,126,645
6462,3243,105,645
6463,2742,105,705
6464,2742,261,696
6465,2706,411,696
6466,2706,411,534
6467,3141,429,534
6468,3057,429,450
6469,3057,597,534
6470,3096,873,534
6471,3096,873,426
6472,3291,1038,426
6473,3537,1038,288
6474,3537,945,240
6475,3162,861,240
6476,3162,861,243
6477,2682,1104,243
6478,2820,1104,336
6479,2820,1491,249
6480,3378,1818,249
6481,3378,1818,165
6482,3744,1965,165
6483,3663,1965,90
6484,3663,1830,105
6485,3300,1839,105
6486,3300,1839,165
6487,3114,2298,165
6488,3606,2298,123
6489,3606,2277,48
6490,3912,2277,48
6491,3912,2529,0
6492,3816,2430,0
6493,3270,2430,-117
6494,3270,2388,-138
6495,3084,2388,-138
6496,3084,2532,-111
6497,3384,2772,-111
6498,3519,2772,-81
6499,3519,3036,24
6500,3438,3036,24
6501,3438,3099,-96
6502,3222,2943,-96
6503,2754,2943,-246
6504,2754,2925,-252
6505,2553,2925,-252
6506,2553,3030,-171
