sequence,AccelerometerX,AccelerometerY,AccelerometerZ
0,-1266,3549,1467
1,-1290,3534,1467
2,-1254,3534,1464
3,-1254,3540,1527
4,-1200,3543,1527
5,-1203,3543,1533
6,-1203,3507,1533
7,-1194,3507,1605
8,-1194,3552,1554
9,-1218,3609,1554
10,-1116,3609,1593
11,-1116,3609,1608
12,-1131,3609,1608
13,-1131,3507,1569
14,-1125,3384,1569
15,-1179,3384,1569
16,-1179,3333,1569
17,-1233,3333,1569
18,-1233,3240,1599
19,-1269,3297,1599
20,-1224,3297,1497
21,-1224,3369,1488
22,-1182,3369,1488
23,-1182,3411,1503
24,-1197,3300,1503
25,-1173,3300,1473
26,-1173,3348,1542
27,-1143,3435,1542
28,-1143,3435,1467
29,-1023,3456,1467
30,-930,3456,1422
31,-930,3492,1422
32,-822,3513,1422
33,-822,3513,1464
34,-837,3495,1464
35,-762,3495,1398
36,-762,3462,1428
37,-729,3549,1428
38,-729,3549,1422
39,-585,3576,1422
40,-543,3576,1359
41,-543,3585,1413
42,-486,3639,1413
43,-486,3639,1434
44,-498,3741,1434
45,-462,3741,1482
46,-462,3741,1407
47,-498,3723,1407
48,-507,3723,1389
49,-507,3741,1389
50,-606,3741,1362
51,-606,3813,1299
52,-609,3840,1299
53,-651,3840,1218
54,-651,3831,1167
55,-696,3831,1167
56,-696,3882,1113
57,-600,3936,1113
58,-636,3936,1128
59,-636,4011,1161
60,-516,4011,1161
61,-516,4011,1068
62,-492,4050,1068
63,-498,4050,1071
64,-498,4107,1011
65,-495,4107,1011
66,-495,4146,1017
67,-591,4167,1017
68,-633,4167,993
69,-633,4092,963
70,-624,4188,963
71,-624,4188,963
72,-645,4245,963
73,-729,4245,945
74,-729,4344,972
75,-768,4389,972
76,-768,4389,981
77,-867,4383,981
78,-873,4383,882
79,-873,4335,861
80,-888,4158,861
81,-888,4158,846
82,-915,4044,846
83,-861,4044,810
84,-861,3963,867
85,-774,3996,867
86,-774,3996,882
87,-819,3936,882
88,-762,3936,936
89,-762,4068,945
90,-807,4038,945
91,-684,4038,936
92,-684,3975,936
93,-729,3975,912
94,-729,3978,951
95,-765,4113,951
96,-798,4113,945
97,-798,4086,861
98,-765,4086,861
99,-765,4014,927
100,-717,3966,927
101,-756,3966,927
102,-756,4011,1023
103,-651,4011,1023
104,-651,4050,1017
105,-678,4092,1017
106,-738,4092,1023
107,-738,4128,1068
108,-702,4128,1068
109,-702,4134,1197
110,-774,4128,1197
111,-861,4128,1242
112,-861,4197,1113
113,-966,4197,1113
114,-966,4056,1092
115,-963,3834,1092
116,-867,3834,1143
117,-867,3759,1152
118,-753,3741,1152
119,-753,3741,1248
120,-696,3690,1248
121,-549,3690,1368
122,-549,3450,1272
123,-474,3456,1272
124,-474,3456,1263
125,-297,3693,1263
126,-288,3693,1317
127,-288,3846,1377
128,-324,3975,1377
129,-324,3975,1422
130,-429,3792,1422
131,-471,3792,1488
132,-471,3777,1473
133,-513,3708,1473
134,-465,3708,1467
135,-465,3801,1467
136,-441,3801,1698
137,-441,3819,1704
138,-600,3900,1704
139,-687,3900,1650
140,-687,3759,1533
141,-618,3759,1533
142,-618,3789,1542
143,-510,3807,1542
144,-630,3807,1452
145,-630,3819,1413
146,-408,3819,1413
147,-408,3606,1287
148,-291,3681,1287
149,-111,3681,1236
150,-111,3825,1218
151,-66,3825,1218
152,-66,4179,966
153,-111,4350,966
154,-30,4350,1137
155,-30,4254,1362
156,-21,3837,1362
157,-21,3837,1449
158,-48,4191,1449
159,18,4191,1332
160,18,4662,1218
161,-12,4338,1218
162,-12,4338,1197
163,-291,3858,1197
164,-471,3858,1272
165,-471,3495,1128
166,-771,3681,1128
167,-771,3681,882
168,-624,3921,882
169,-921,3921,621
170,-921,3528,609
171,-936,3129,609
172,-624,3129,651
173,-624,2868,651
174,-729,2868,579
175,-729,3021,270
176,-624,2943,270
177,-315,2943,351
178,-315,2862,351
179,-201,2862,501
180,-201,2769,591
181,24,2826,591
182,48,2826,630
183,48,3636,762
184,-303,3636,762
185,-303,4236,747
186,-159,4305,747
187,-186,4305,936
188,-186,4029,1062
189,-177,4029,1062
190,-177,3675,1008
191,-372,4125,1008
192,-375,4125,930
193,-375,4425,900
194,-684,4425,900
195,-684,4362,1368
196,-684,4500,1368
197,-1056,4500,1131
198,-1056,5241,852
199,-939,5241,852
200,-939,5274,846
201,-498,4689,846
202,-336,4689,1011
203,-336,3963,1143
204,-447,3939,1143
205,-447,3939,1011
206,-618,3909,1011
207,-498,3909,921
208,-498,3948,1008
209,-24,3876,1008
210,-24,3876,1203
211,-42,3753,1203
212,93,3753,1293
213,93,3990,1206
214,126,4341,1206
215,126,4341,1233
216,156,4374,1233
217,177,4374,1248
218,177,4260,1218
219,48,4104,1218
220,-48,4104,1248
221,-48,4074,1248
222,-222,4074,1212
223,-222,4110,1227
224,-405,3939,1227
225,-618,3939,1206
226,-618,3825,1206
227,-801,3825,1173
228,-801,3720,1161
229,-654,3657,1161
230,-609,3657,1131
231,-609,3732,1131
232,-402,3732,1053
233,-402,3840,945
234,-375,3891,945
235,-336,3891,897
236,-336,3861,831
237,-279,3861,831
238,-279,3894,861
239,-390,3936,861
240,-369,3936,810
241,-369,3963,852
242,-384,3963,852
243,-384,3927,882
244,-423,3825,882
245,-471,3825,867
246,-471,3810,897
247,-462,3753,897
248,-462,3753,915
249,-489,3735,915
250,-516,3735,930
251,-516,3855,915
252,-579,3897,915
253,-579,3897,942
254,-516,3987,942
255,-474,3987,921
256,-474,3996,897
257,-486,3972,897
258,-486,3972,900
259,-498,4014,900
260,-528,4014,900
261,-528,4053,897
262,-564,4002,897
263,-480,4002,936
264,-480,3948,936
265,-438,3948,876
266,-438,3858,963
267,-426,3930,963
268,-417,3930,921
269,-417,3993,921
270,-411,3993,921
271,-411,3933,885
272,-438,3921,885
273,-474,3921,957
274,-474,3864,882
275,-462,3864,882
276,-462,3930,1008
277,-420,3996,1008
278,-396,3996,1023
279,-396,4005,1026
280,-402,4005,1026
281,-402,3924,1017
282,-459,3978,1017
283,-429,3978,1038
284,-429,4014,987
285,-441,3975,987
286,-441,3975,1011
287,-402,3930,1011
288,-456,3930,1032
289,-456,3963,1038
290,-396,3996,1038
291,-396,3996,1002
292,-426,3975,1002
293,-393,3975,1002
294,-393,3924,1056
295,-354,3942,1056
296,-354,3942,1077
297,-309,3936,1077
298,-342,3936,1038
299,-342,3954,1032
300,-336,3978,1032
301,-375,3978,1041
302,-375,3957,1041
303,-384,3957,1026
304,-384,3993,1032
305,-426,3939,1032
306,-531,3939,993
307,-531,3876,993
308,-600,3876,927
309,-600,3912,897
310,-549,3912,897
311,-480,3912,912
312,-480,3906,912
313,-510,3906,957
314,-510,3831,966
315,-498,3987,966
316,-474,3987,972
317,-474,3963,930
318,-474,3963,930
319,-474,3870,966
320,-405,3846,966
321,-420,3846,942
322,-420,3948,942
323,-369,3948,942
324,-369,3921,936
325,-390,3972,936
326,-393,3972,1023
327,-393,3954,987
328,-435,3957,987
329,-435,3957,951
330,-486,3975,951
331,-474,3975,996
332,-474,3975,966
333,-447,3957,966
334,-447,3957,978
335,-408,3927,978
336,-438,3927,1062
337,-438,3999,1011
338,-384,4008,1011
339,-384,4008,1086
340,-396,3948,1086
341,-387,3948,1077
342,-387,3933,1101
343,-423,4017,1101
344,-444,4017,987
345,-444,3996,987
346,-489,3996,1047
347,-489,3996,1062
348,-441,3885,1062
349,-441,3885,1026
350,-441,3858,1026
351,-426,3858,963
352,-426,3903,951
353,-384,3873,951
354,-333,3873,900
355,-333,3822,876
356,-348,3822,876
357,-348,3768,981
358,-372,3885,981
359,-417,3885,876
360,-417,3921,861
361,-390,3921,861
362,-390,3888,855
363,-396,3882,855
364,-354,3882,825
365,-354,3858,912
366,-384,3858,912
367,-384,3891,957
368,-336,3990,957
369,-201,3990,927
370,-201,4068,1026
371,-63,4236,1026
372,-63,4236,981
373,-141,3960,981
374,99,3960,1233
375,99,3933,1206
376,117,4110,1206
377,117,4110,1353
378,348,4113,1353
379,594,4113,1437
380,594,4251,1434
381,948,4560,1434
382,948,4560,1614
383,1338,4521,1614
384,1452,4521,1563
385,1452,4221,1599
386,1248,4005,1599
387,1593,4005,1605
388,1593,4440,1605
389,1701,4440,1593
390,1701,4635,1680
391,1983,4662,1680
392,2010,4662,1674
393,2010,4542,1710
394,1563,4542,1710
395,1563,4275,1668
396,1641,4206,1668
397,1989,4206,1764
398,1989,4596,1818
399,2106,4596,1818
400,2106,4635,1809
401,2223,4569,1809
402,2130,4569,1719
403,2130,4299,1848
404,2403,4299,1848
405,2403,3945,1935
406,2544,4185,1935
407,2796,4185,1854
408,2796,4467,1788
409,2790,4263,1788
410,2790,4263,1815
411,2592,3738,1815
412,2715,3738,1779
413,2715,3591,1824
414,2997,3582,1824
415,2997,3582,1758
416,2958,3318,1758
417,3123,3318,1587
418,3123,3297,1437
419,3066,2754,1437
420,3066,2754,1449
421,3090,2817,1449
422,2922,2817,1437
423,2922,2430,1284
424,2679,2124,1284
425,2232,2124,1008
426,2232,1650,1008
427,2070,1650,1038
428,2070,1467,846
429,1839,1104,846
430,1665,1104,825
431,1665,786,825
432,1317,786,846
433,1317,408,786
434,1353,342,786
435,1404,342,696
436,1404,12,786
437,1659,12,786
438,1659,-90,831
439,1920,-132,831
440,2412,-132,876
441,2412,-42,1017
442,2946,-42,1017
443,2946,-78,1092
444,3441,-153,1092
445,3720,-153,1164
446,3720,-114,1086
447,3723,-114,1086
448,3723,-27,1116
449,3813,-81,1116
450,3696,-81,1092
451,3696,-282,1158
452,3630,-285,1158
453,3630,-285,1086
454,3576,-261,1086
455,3603,-261,1113
456,3603,-171,1113
457,3762,-48,1113
458,3762,-48,1116
459,3876,-192,1116
460,3930,-192,1083
461,3930,-282,1071
462,3936,-189,1071
463,3936,-189,1053
464,3912,-216,1053
465,3879,-216,1053
466,3879,-24,942
467,3837,27,942
468,3726,27,963
469,3726,-87,963
470,3870,-87,1056
471,3870,-171,981
472,3888,-84,981
473,3861,-84,1023
474,3861,-12,1023
475,3834,-12,1062
476,3834,57,1011
477,3849,-18,1011
478,3918,-18,1071
479,3918,-78,1071
480,3882,-78,1041
481,3882,-186,1062
482,3852,-102,1062
483,3837,-102,993
484,3837,-33,948
485,3744,-33,948
486,3744,-126,1062
487,3774,-141,1062
488,3675,-141,1023
489,3675,-63,1023
490,3609,-63,1023
491,3609,-30,1038
492,3642,51,1038
493,3579,51,1038
494,3579,0,1038
495,3492,0,1038
496,3492,33,978
497,3549,219,978
498,3693,219,1026
499,3693,426,1131
500,3837,426,1131
501,3837,501,1137
502,3744,384,1137
503,3678,384,1101
504,3678,324,1101
505,3603,408,1101
506,3603,408,1041
507,3552,348,1041
508,3741,348,1077
509,3741,540,1116
510,3567,549,1116
511,3567,549,1098
512,3411,510,1098
513,3387,510,1056
514,3387,525,1131
515,3465,645,1131
516,3525,645,1188
517,3525,843,1188
518,3516,843,1236
519,3516,921,1158
520,3204,828,1158
521,3177,828,1218
522,3177,795,1218
523,3333,795,1251
524,3333,1065,1392
525,3462,1260,1392
526,3402,1260,1422
527,3402,1401,1359
528,3231,1401,1359
529,3231,1359,1338
530,3327,1326,1338
531,3600,1326,1407
532,3600,1620,1464
533,3603,1620,1464
534,3603,1623,1434
535,3384,1590,1434
536,3234,1590,1464
537,3234,1551,1437
538,3333,1551,1437
539,3333,1635,1482
540,3447,1893,1482
541,3297,1893,1554
542,3297,1875,1578
543,3042,1875,1578
544,3042,1998,1620
545,2844,2028,1620
546,2859,2028,1587
547,2859,2097,1644
548,3042,2355,1644
549,3042,2355,1668
550,3057,2673,1668
551,2970,2673,1740
552,2970,2790,1668
553,2898,2679,1668
554,2898,2679,1569
555,2997,2661,1569
556,3051,2661,1629
557,3051,2784,1584
558,3123,2994,1584
559,2946,2994,1548
560,2946,2862,1548
561,2865,2862,1527
562,2865,2667,1533
563,2826,2646,1533
564,2850,2646,1527
565,2850,2916,1527
566,2709,2916,1620
567,2709,2925,1512
568,2526,2799,1512
569,2328,2799,1494
570,2328,2652,1524
571,2232,2652,1524
572,2232,2757,1638
573,2085,3120,1638
574,1920,3120,1683
575,1920,3198,1659
576,1788,3198,1659
577,1788,3147,1695
578,1731,3111,1695
579,1839,3111,1644
580,1839,3183,1638
581,1848,3183,1638
582,1848,3381,1614
583,1812,3411,1614
584,2004,3411,1719
585,2004,3366,1773
586,1947,3429,1773
587,1947,3429,1728
588,1974,3522,1728
589,1947,3522,1599
590,1947,3564,1674
591,1848,3594,1674
592,1848,3594,1593
593,1752,3540,1593
594,1632,3540,1653
595,1632,3486,1563
596,1512,3432,1563
597,1512,3432,1614
598,1494,3519,1614
599,1443,3519,1638
600,1443,3732,1680
601,1287,3906,1680
602,1146,3906,1635
603,1146,3885,1635
604,1002,3885,1524
605,1002,3756,1509
606,909,3699,1509
607,1038,3699,1377
608,1038,3603,1479
609,1062,3603,1479
610,1062,3729,1479
611,942,3810,1479
612,891,3810,1392
613,891,3852,1452
614,930,3852,1452
615,930,3750,1419
616,990,3744,1419
617,1017,3744,1413
618,1017,3729,1503
619,1023,3729,1503
620,1023,3816,1578
621,882,4041,1578
622,909,4041,1584
623,909,4047,1599
624,897,3900,1599
625,897,3900,1608
626,813,3828,1608
627,711,3828,1557
628,711,3849,1542
629,630,3855,1542
630,630,3855,1512
631,660,3810,1512
632,528,3810,1488
633,528,3798,1554
634,465,3768,1554
635,465,3768,1572
636,390,3768,1572
637,405,3768,1539
638,405,3780,1518
639,453,3747,1518
640,525,3747,1458
641,525,3792,1458
642,504,3792,1494
643,504,3810,1467
644,591,3804,1467
645,519,3804,1503
646,519,3789,1503
647,468,3789,1443
648,468,3819,1467
649,453,3846,1467
650,453,3846,1437
651,453,3810,1383
652,402,3810,1383
653,402,3762,1353
654,393,3780,1353
655,483,3780,1383
656,483,3816,1374
657,465,3816,1374
658,465,3825,1347
659,507,3798,1347
660,582,3798,1392
661,582,3891,1362
662,582,3852,1362
663,582,3852,1377
664,606,3777,1377
665,615,3777,1383
666,615,3738,1434
667,699,3738,1434
668,699,3738,1338
669,642,3744,1338
670,672,3744,1329
671,672,3810,1389
672,699,3867,1389
673,699,3867,1434
674,732,3879,1434
675,684,3879,1464
676,684,3921,1368
677,612,3837,1368
678,609,3837,1494
679,609,3753,1494
680,630,3753,1344
681,630,3780,1374
682,657,3735,1374
683,747,3735,1428
684,747,3825,1434
685,888,3825,1434
686,888,3981,1422
687,969,3915,1422
688,972,3915,1479
689,972,3819,1449
690,1056,3819,1449
691,1056,3765,1443
692,1056,3729,1443
693,1110,3729,1482
694,1110,3828,1422
695,1146,3828,1422
696,1146,3819,1419
697,1245,3747,1419
698,1269,3747,1383
699,1269,3747,1332
700,1254,3747,1332
701,1254,3675,1398
702,1386,3663,1398
703,1524,3663,1329
704,1524,3681,1359
705,1626,3807,1359
706,1626,3807,1383
707,1629,3789,1383
708,1674,3789,1353
709,1674,3789,1398
710,1590,3756,1398
711,1590,3756,1368
712,1626,3633,1368
713,1749,3633,1398
714,1749,3696,1452
715,1821,3726,1452
716,1821,3726,1368
717,1866,3702,1368
718,1917,3702,1419
719,1917,3678,1443
720,1914,3522,1443
721,2079,3522,1422
722,2079,3462,1422
723,2205,3462,1494
724,2205,3456,1539
725,2109,3528,1539
726,2124,3528,1404
727,2124,3408,1419
728,2286,3408,1419
729,2286,3228,1437
730,2448,3069,1437
731,2421,3069,1419
732,2421,3111,1452
733,2493,3111,1452
734,2493,3237,1407
735,2535,3150,1407
736,2646,3150,1377
737,2646,3036,1443
738,2769,3036,1443
739,2769,2892,1413
740,2904,2808,1413
741,2973,2808,1383
742,2973,2898,1362
743,2952,2745,1362
744,2952,2745,1368
745,3018,2727,1368
746,2922,2727,1332
747,2922,2541,1299
748,2907,2412,1299
749,2907,2412,1272
750,3018,2298,1272
751,3084,2298,1242
752,3084,2325,1317
753,3243,2283,1317
754,3213,2283,1308
755,3213,2268,1308
756,3303,2268,1377
757,3303,2160,1332
758,3264,1908,1332
759,3573,1908,1266
760,3573,1917,1266
761,3690,1917,1236
762,3690,1887,1236
763,3768,1713,1236
764,3774,1713,1137
765,3774,1770,1122
766,3678,1770,1122
767,3678,1548,1116
768,3774,1449,1116
769,3888,1449,1092
770,3888,1518,1203
771,3801,1518,1203
772,3801,1260,1056
773,3795,1200,1056
774,3699,1200,1062
775,3699,1116,1002
776,3567,849,1002
777,3567,849,1011
778,3669,786,1011
779,3591,786,1056
780,3591,690,981
781,3417,633,981
782,3417,633,870
783,3351,603,870
784,3498,603,927
785,3498,483,891
786,3396,297,891
787,3396,297,912
788,3570,225,912
789,3798,225,852
790,3798,420,837
791,3723,210,837
792,3606,210,837
793,3606,66,837
794,3465,66,801
795,3465,54,795
796,3216,-219,795
797,3264,-219,828
798,3264,-276,831
799,3174,-276,831
800,3174,-468,843
801,3087,-486,843
802,3111,-486,750
803,3111,-396,843
804,3123,-396,843
805,3123,-468,972
806,3282,-525,972
807,3450,-525,921
808,3450,-213,948
809,3612,-267,948
810,3612,-267,891
811,3783,-315,891
812,3783,-315,927
813,3783,-354,903
814,3744,-528,903
815,3744,-528,906
816,3720,-498,906
817,3705,-498,918
818,3705,-459,933
819,3687,-465,933
820,3693,-465,957
821,3693,-603,957
822,3639,-603,912
823,3639,-678,942
824,3657,-663,942
825,3642,-663,951
826,3642,-555,948
827,3594,-555,948
828,3594,-489,948
829,3531,-552,948
830,3621,-552,876
831,3621,-477,903
832,3579,-477,903
833,3579,-447,828
834,3720,-288,828
835,3732,-288,843
836,3732,-333,822
837,3837,-333,822
838,3837,-219,873
839,3987,-273,873
840,4026,-273,921
841,4026,-324,816
842,3810,-324,816
843,3810,-174,846
844,3729,-180,846
845,3870,-180,858
846,3870,-186,972
847,3732,-255,972
848,3732,-255,927
849,3552,-378,927
850,3672,-378,921
851,3672,-168,1002
852,3639,42,1002
853,3639,42,1011
854,3699,18,1011
855,3606,18,966
856,3606,-21,978
857,3552,-60,978
858,3591,-60,981
859,3591,105,981
860,3723,105,1056
861,3723,228,1131
862,3612,213,1131
863,3630,213,996
864,3630,294,1098
865,3627,294,1098
866,3627,339,1128
867,3696,459,1128
868,3738,459,1182
869,3738,357,1152
870,3504,357,1152
871,3504,330,1116
872,3522,603,1116
873,3759,603,1206
874,3759,906,1338
875,3687,906,1338
876,3687,807,1344
877,3531,633,1344
878,3387,633,1263
879,3387,756,1188
880,3462,909,1188
881,3462,909,1257
882,3669,1155,1257
883,3573,1155,1392
884,3573,1056,1473
885,3435,1095,1473
886,3435,1095,1389
887,3330,1122,1389
888,3447,1122,1452
889,3447,1233,1527
890,3585,1293,1527
891,3423,1293,1524
892,3423,1332,1524
893,3345,1332,1419
894,3345,1566,1443
895,3183,1497,1443
896,3246,1497,1467
897,3246,1608,1557
898,3294,1608,1557
899,3294,1791,1527
900,3282,1812,1527
901,3294,1812,1542
902,3294,1863,1593
903,3147,1863,1593
904,3147,2049,1569
905,3198,2082,1569
906,3114,2082,1620
907,3114,2025,1542
908,3072,2118,1542
909,3072,2118,1659
910,3141,2403,1659
911,3138,2403,1650
912,3138,2388,1743
913,2997,2436,1743
914,2997,2436,1743
915,2958,2373,1743
916,2853,2373,1794
917,2853,2499,1773
918,2862,2718,1773
919,2862,2718,1818
920,2835,2715,1818
921,2712,2715,1830
922,2712,2640,1839
923,2697,2730,1839
924,2625,2730,1788
925,2625,2868,1788
926,2778,2868,1788
927,2778,2985,1818
928,2814,3078,1818
929,2688,3078,1824
930,2688,3030,1809
931,2439,3030,1809
932,2439,3096,1725
933,2415,2910,1725
934,2316,2910,1758
935,2316,2949,1815
936,2232,2949,1815
937,2232,3075,1764
938,2142,2991,1764
939,2025,2991,1614
940,2025,2979,1623
941,1983,2910,1623
942,1983,2910,1710
943,1923,3003,1710
944,1881,3003,1770
945,1881,3138,1815
946,1710,3282,1815
947,1710,3282,1683
948,1629,3372,1683
949,1641,3372,1659
950,1641,3354,1659
951,1719,3234,1659
952,1695,3234,1674
953,1695,3507,1674
954,1770,3507,1638
955,1770,3711,1614
956,1701,3702,1614
957,1644,3702,1668
958,1644,3603,1668
959,1455,3603,1599
960,1455,3648,1623
961,1350,3561,1623
962,1233,3561,1608
963,1233,3630,1557
964,1215,3630,1557
965,1215,3783,1548
966,1122,3759,1548
967,1041,3759,1512
968,1041,3708,1512
969,1071,3708,1512
970,1071,3660,1494
971,1155,3645,1494
972,1107,3645,1512
973,1107,3765,1584
974,1047,3765,1584
975,1047,3933,1572
976,1044,3930,1572
977,909,3930,1419
978,909,3834,1458
979,918,3738,1458
980,918,3738,1419
981,975,3813,1419
982,1068,3813,1434
983,1068,3870,1407
984,1035,3963,1407
985,1035,3963,1473
986,1041,3951,1473
987,957,3951,1509
988,957,3834,1563
989,915,3852,1563
990,915,3852,1488
991,855,3849,1488
992,741,3849,1443
993,741,3864,1467
994,621,3843,1467
995,678,3843,1464
996,678,3750,1464
997,660,3750,1458
998,660,3768,1479
999,633,3774,1479
1000,597,3774,1467
1001,597,3855,1449
1002,495,3855,1449
1003,495,3834,1383
1004,420,3684,1383
1005,594,3684,1398
1006,594,3663,1422
1007,672,3663,1422
1008,672,3714,1464
1009,597,3843,1464
1010,564,3843,1428
1011,564,3969,1437
1012,486,3819,1437
1013,486,3819,1392
1014,432,3663,1392
1015,507,3663,1398
1016,507,3648,1392
1017,564,3747,1392
1018,564,3747,1437
1019,552,3870,1437
1020,573,3870,1464
1021,573,3846,1497
1022,633,3789,1497
1023,633,3789,1488
1024,720,3837,1488
1025,795,3837,1449
1026,795,3810,1518
1027,900,3867,1518
1028,1005,3867,1482
1029,1005,3984,1482
1030,1197,3984,1512
1031,1197,3906,1584
1032,1278,3882,1584
1033,1434,3882,1623
1034,1434,4008,1605
1035,1482,4008,1605
1036,1482,4059,1587
1037,1365,3999,1587
1038,1320,3999,1584
1039,1320,3927,1533
1040,1335,3927,1533
1041,1335,3861,1539
1042,1485,3867,1539
1043,1563,3867,1578
1044,1563,3828,1650
1045,1662,3828,1650
1046,1662,3936,1584
1047,1803,3966,1584
1048,1827,3966,1623
1049,1827,3852,1614
1050,1974,3711,1614
1051,1974,3711,1623
1052,2163,3825,1623
1053,2310,3825,1659
1054,2310,3834,1755
1055,2436,3870,1755
1056,2436,3870,1665
1057,2283,3702,1665
1058,2226,3702,1698
1059,2226,3675,1638
1060,2325,3660,1638
1061,2457,3660,1608
1062,2457,3468,1608
1063,2451,3468,1494
1064,2451,3279,1494
1065,2349,3186,1494
1066,2352,3186,1518
1067,2352,3111,1542
1068,2625,3111,1542
1069,2625,3084,1554
1070,2619,2817,1554
1071,2688,2817,1488
1072,2688,2778,1464
1073,2730,2778,1464
1074,2730,2610,1494
1075,2871,2430,1494
1076,2958,2430,1428
1077,2958,2385,1464
1078,3009,2385,1464
1079,3009,2400,1449
1080,3039,2085,1449
1081,3303,2085,1413
1082,3303,2046,1308
1083,3387,2016,1308
1084,3387,2016,1347
1085,3465,1713,1347
1086,3507,1713,1353
1087,3507,1707,1233
1088,3195,1470,1233
1089,3195,1470,1242
1090,3318,1398,1242
1091,3396,1398,1266
1092,3396,1341,1218
1093,3504,1242,1218
1094,3393,1242,1251
1095,3393,1143,1251
1096,3531,1143,1167
1097,3531,1179,1146
1098,3414,951,1146
1099,3663,951,1116
1100,3663,873,1116
1101,3603,873,1116
1102,3603,783,1098
1103,3366,615,1098
1104,3348,615,1062
1105,3348,579,993
1106,3297,579,993
1107,3297,318,1002
1108,3435,309,1002
1109,3435,309,993
1110,3435,321,972
1111,3378,321,972
1112,3378,165,972
1113,3435,-72,972
1114,3195,-72,1026
1115,3195,-189,1068
1116,3243,-339,1068
1117,3243,-339,1041
1118,3273,-294,1041
1119,3273,-294,1032
1120,3273,-282,996
1121,3333,-378,996
1122,3333,-378,1098
1123,3336,-489,1098
1124,3501,-489,1077
1125,3501,-402,1158
1126,3420,-426,1158
1127,3420,-426,1101
1128,3420,-408,1101
1129,3456,-408,1032
1130,3456,-474,1041
1131,3441,-525,1041
1132,3606,-525,1107
1133,3606,-537,1107
1134,3705,-537,1101
1135,3705,-414,1098
1136,3675,-465,1098
1137,3732,-465,1053
1138,3732,-555,1122
1139,3795,-555,1122
1140,3795,-576,1083
1141,3675,-609,1083
1142,3705,-609,1008
1143,3705,-501,1002
1144,3720,-501,1002
1145,3720,-561,978
1146,3657,-606,978
1147,3699,-606,987
1148,3699,-492,993
1149,3807,-492,993
1150,3807,-447,981
1151,3879,-456,981
1152,3807,-456,1041
1153,3807,-522,1011
1154,3762,-447,1011
1155,3762,-447,1011
1156,3747,-477,1011
1157,3744,-477,1032
1158,3744,-504,1056
1159,3834,-480,1056
1160,3834,-480,1086
1161,3801,-408,1086
1162,3846,-408,1071
1163,3846,-366,1101
1164,3948,-369,1101
1165,3948,-369,1158
1166,3888,-426,1158
1167,3750,-426,1101
1168,3750,-429,1134
1169,3567,-495,1134
1170,3549,-495,1071
1171,3549,-522,1071
1172,3456,-522,1092
1173,3456,-441,1071
1174,3381,-474,1071
1175,3285,-474,1086
1176,3285,-384,1086
1177,3195,-384,1032
1178,3195,-381,1071
1179,3258,-267,1071
1180,3267,-267,1086
1181,3267,-288,1113
1182,3279,-288,1113
1183,3279,-234,1086
1184,3276,-36,1086
1185,3198,-36,1083
1186,3198,168,1131
1187,3402,168,1131
1188,3402,243,1176
1189,3423,153,1176
1190,3396,153,1191
1191,3396,93,1152
1192,3336,93,1152
1193,3336,318,1101
1194,3279,486,1101
1195,3675,486,1206
1196,3675,828,1287
1197,3507,828,1287
1198,3507,642,1353
1199,3450,642,1353
1200,3282,642,1278
1201,3282,990,1308
1202,3171,1050,1308
1203,3171,1050,1407
1204,3198,1005,1407
1205,3024,1005,1383
1206,3024,1005,1443
1207,2919,1230,1443
1208,2919,1230,1434
1209,2898,1608,1434
1210,3039,1608,1479
1211,3039,1794,1392
1212,3024,1920,1392
1213,3153,1920,1524
1214,3153,1872,1524
1215,3207,1872,1482
1216,3207,2019,1407
1217,3177,2310,1407
1218,3483,2310,1449
1219,3483,2562,1449
1220,3504,2562,1494
1221,3504,2490,1623
1222,3483,2538,1623
1223,3165,2538,1503
1224,3165,2544,1482
1225,2745,2544,1482
1226,2745,2526,1533
1227,2571,2628,1533
1228,2814,2628,1569
1229,2814,2943,1689
1230,2820,2943,1689
1231,2820,3111,1674
1232,2640,3033,1674
1233,2439,3033,1599
1234,2439,3027,1542
1235,2373,3054,1542
1236,2373,3054,1650
1237,2544,3477,1650
1238,2373,3477,1614
1239,2373,3561,1719
1240,2058,3411,1719
1241,2058,3411,1548
1242,1905,3528,1548
1243,1683,3528,1557
1244,1683,3624,1593
1245,1665,3555,1593
1246,1665,3555,1554
1247,1575,3648,1554
1248,1482,3648,1569
1249,1482,3747,1650
1250,1536,4017,1650
1251,1593,4017,1557
1252,1593,4185,1557
1253,1512,4185,1557
1254,1512,4011,1473
1255,1389,4017,1473
1256,1293,4017,1437
1257,1293,3903,1437
1258,1260,3903,1569
1259,1260,4014,1557
1260,1230,4203,1557
1261,1161,4203,1587
1262,1161,4275,1467
1263,1389,4275,1467
1264,1389,4131,1668
1265,1305,4164,1668
1266,1368,4164,1698
1267,1368,4131,1599
1268,1260,4131,1599
1269,1260,4086,1527
1270,1149,3918,1527
1271,1104,3918,1593
1272,1104,3819,1578
1273,972,3894,1578
1274,972,3894,1599
1275,975,3981,1599
1276,1008,3981,1524
1277,1008,3984,1563
1278,948,3906,1563
1279,948,3906,1542
1280,867,3789,1542
1281,771,3789,1494
1282,771,3738,1443
1283,744,3837,1443
1284,744,3837,1488
1285,747,3759,1488
1286,765,3759,1473
1287,765,3750,1479
1288,729,3693,1479
1289,657,3693,1533
1290,657,3786,1533
1291,591,3786,1527
1292,591,3840,1437
1293,558,3828,1437
1294,588,3828,1482
1295,588,3861,1482
1296,540,3861,1464
1297,540,3837,1449
1298,471,3780,1449
1299,513,3780,1407
1300,513,3723,1434
1301,576,3723,1434
1302,576,3807,1443
1303,648,3816,1443
1304,747,3816,1434
1305,747,4011,1467
1306,717,4011,1467
1307,717,3816,1473
1308,630,3714,1473
1309,711,3714,1512
1310,711,3804,1488
1311,804,3930,1488
1312,804,3930,1587
1313,1023,3939,1587
1314,1143,3939,1614
1315,1143,4023,1614
1316,1158,3966,1614
1317,1158,3966,1629
1318,1281,3927,1629
1319,1512,3927,1734
1320,1512,3831,1740
1321,1701,4002,1740
1322,1860,4002,1755
1323,1860,4050,1755
1324,1959,4050,1719
1325,1959,3885,1788
1326,2121,3870,1788
1327,2166,3870,1845
1328,2166,3840,1845
1329,2199,3840,1884
1330,2199,3915,1815
1331,2175,4038,1815
1332,1908,4038,1794
1333,1908,3801,1755
1334,1974,3801,1755
1335,1974,3543,1848
1336,2058,3642,1848
1337,2052,3642,1788
1338,2052,3591,1785
1339,2265,3591,1785
1340,2265,3729,1770
1341,2472,3747,1770
1342,2505,3747,1875
1343,2505,3573,1815
1344,2508,3411,1815
1345,2508,3411,1749
1346,2607,3390,1749
1347,2760,3390,1653
1348,2760,3192,1683
1349,2760,3024,1683
1350,2760,3024,1683
1351,2886,2934,1683
1352,3039,2934,1569
1353,3039,2856,1518
1354,2949,2736,1518
1355,2949,2736,1593
1356,3183,2727,1593
1357,3171,2727,1524
1358,3171,2601,1503
1359,3138,2286,1503
1360,3291,2286,1458
1361,3291,2223,1458
1362,3153,2223,1413
1363,3153,2082,1323
1364,3363,1947,1323
1365,3393,1947,1266
1366,3393,1800,1212
1367,3441,1800,1212
1368,3441,1641,1137
1369,3606,1419,1137
1370,3471,1419,1203
1371,3471,1191,1092
1372,3300,1191,1092
1373,3300,828,1098
1374,3174,795,1098
1375,3264,795,1122
1376,3264,702,1128
1377,3234,702,1128
1378,3234,477,1101
1379,2946,3,1101
1380,2781,3,1002
1381,2781,-246,972
1382,2670,-246,972
1383,2670,-225,966
1384,2763,-243,966
1385,2631,-243,903
1386,2631,-432,873
1387,2310,-525,873
1388,2310,-525,861
1389,2343,-567,861
1390,2457,-567,891
1391,2457,-540,867
1392,2712,-576,867
1393,2712,-576,897
1394,2826,-438,897
1395,3171,-438,936
1396,3171,-297,966
1397,3309,-471,966
1398,3309,-471,957
1399,3573,-549,957
1400,3774,-549,936
1401,3774,-420,966
1402,3906,-399,966
1403,4005,-399,957
1404,4005,-456,957
1405,3858,-456,948
1406,3858,-591,987
1407,3897,-675,987
1408,4038,-675,906
1409,4038,-567,906
1410,3975,-567,942
1411,3975,-576,966
1412,3957,-573,966
1413,3936,-573,936
1414,3936,-621,927
1415,3819,-621,927
1416,3819,-621,873
1417,3789,-660,873
1418,3759,-660,921
1419,3759,-471,906
1420,3687,-471,906
1421,3687,-468,903
1422,3621,-546,903
1423,3729,-546,891
1424,3729,-576,876
1425,3639,-576,876
1426,3639,-408,903
1427,3690,-300,903
1428,3540,-300,891
1429,3540,-321,795
1430,3417,-366,795
1431,3417,-366,771
1432,3555,-330,771
1433,3588,-330,858
1434,3588,-342,903
1435,3453,-213,903
1436,3453,-213,891
1437,3249,-204,891
1438,3210,-204,801
1439,3210,-210,972
1440,3690,135,972
1441,3690,135,1068
1442,3699,174,1068
1443,3510,174,1143
1444,3510,105,945
1445,3318,165,945
1446,3318,165,1011
1447,3213,198,1011
1448,3471,198,1032
1449,3471,321,1077
1450,3585,504,1077
1451,3489,504,1191
1452,3489,447,1191
1453,3261,447,1137
1454,3261,606,1098
1455,3009,636,1098
1456,3405,636,1131
1457,3405,882,1236
1458,3507,882,1236
1459,3507,933,1362
1460,3561,1053,1362
1461,3333,1053,1338
1462,3333,1155,1263
1463,3297,1155,1263
1464,3297,1248,1266
1465,3783,1614,1266
1466,3639,1614,1404
1467,3639,1449,1383
1468,3573,1449,1383
1469,3573,1377,1218
1470,3393,1800,1218
1471,3558,1800,1284
1472,3558,2142,1404
1473,3522,2142,1404
1474,3522,1977,1383
1475,3549,1818,1383
1476,3255,1818,1389
1477,3255,1710,1317
1478,3018,1977,1317
1479,3018,1977,1284
1480,3075,2229,1284
1481,3156,2229,1479
1482,3156,2358,1467
1483,2901,2280,1467
1484,2901,2280,1464
1485,2808,2406,1464
1486,2622,2406,1503
1487,2622,2562,1563
1488,2775,2877,1563
1489,2775,2877,1524
1490,2973,3078,1524
1491,2796,3078,1608
1492,2796,2946,1563
1493,2718,2991,1563
1494,2757,2991,1614
1495,2757,3162,1614
1496,2709,3162,1542
1497,2709,3222,1614
1498,2619,3078,1614
1499,2595,3078,1569
1500,2595,3078,1569
1501,2448,3078,1650
1502,2448,3273,1650
1503,2235,3444,1650
1504,2247,3444,1674
1505,2247,3396,1734
1506,2067,3396,1734
1507,2067,3207,1683
1508,1938,3222,1683
1509,1833,3222,1779
1510,1833,3492,1743
1511,1593,3492,1743
1512,1593,3636,1728
1513,1470,3591,1728
1514,1554,3591,1650
1515,1554,3528,1755
1516,1677,3528,1755
1517,1677,3456,1833
1518,1572,3696,1833
1519,1440,3696,1809
1520,1440,3933,1695
1521,1338,3960,1695
1522,1338,3960,1668
1523,1419,3792,1668
1524,1389,3792,1794
1525,1389,3861,1749
1526,1254,3870,1749
1527,1254,3870,1728
1528,1197,3915,1728
1529,1194,3915,1668
1530,1194,3939,1698
1531,1146,3846,1698
1532,1167,3846,1839
1533,1167,3756,1839
1534,1059,3756,1818
1535,1059,4062,1740
1536,1002,4056,1740
1537,1023,4056,1734
1538,1023,3969,1734
1539,933,3969,1704
1540,933,3774,1563
1541,804,3630,1563
1542,858,3630,1548
1543,858,3588,1554
1544,795,3588,1554
1545,795,3936,1524
1546,834,3981,1524
1547,735,3981,1539
1548,735,3783,1518
1549,633,3783,1518
1550,633,3573,1497
1551,660,3696,1497
1552,768,3696,1449
1553,768,3708,1464
1554,699,3708,1464
1555,699,3729,1479
1556,768,3783,1479
1557,828,3783,1509
1558,828,3789,1527
1559,888,3765,1527
1560,888,3765,1554
1561,882,3846,1554
1562,948,3846,1557
1563,948,3828,1539
1564,903,3765,1539
1565,903,3765,1518
1566,867,3708,1518
1567,846,3708,1554
1568,846,3690,1533
1569,864,3762,1533
1570,948,3762,1587
1571,948,3825,1587
1572,1092,3825,1497
1573,1092,3930,1497
1574,1185,3828,1497
1575,1263,3828,1542
1576,1263,3894,1542
1577,1437,3894,1539
1578,1437,3927,1554
1579,1632,3996,1554
1580,1770,3996,1605
1581,1770,4047,1605
1582,1731,4047,1605
1583,1731,3972,1593
1584,1605,3912,1593
1585,1683,3912,1665
1586,1683,3945,1674
1587,1710,3945,1674
1588,1710,3912,1680
1589,1803,3984,1680
1590,1959,3984,1650
1591,1959,3978,1659
1592,1998,3978,1659
1593,1998,3750,1788
1594,2058,3876,1788
1595,2163,3876,1848
1596,2163,4143,1683
1597,2025,3921,1683
1598,2025,3921,1665
1599,2130,3612,1665
1600,2229,3612,1749
1601,2229,3651,1635
1602,2586,3684,1635
1603,2586,3684,1629
1604,2664,3537,1629
1605,2523,3537,1524
1606,2523,3285,1608
1607,2457,3078,1608
1608,2457,3078,1497
1609,2553,3081,1497
1610,2613,3081,1542
1611,2613,3003,1419
1612,2658,2835,1419
1613,2817,2835,1494
1614,2817,2793,1494
1615,2964,2793,1449
1616,2964,2610,1362
1617,3189,2517,1362
1618,3246,2517,1251
1619,3246,2460,1242
1620,3177,2460,1242
1621,3177,2283,1242
1622,3366,2274,1242
1623,3336,2274,1158
1624,3336,2163,1197
1625,3258,2163,1197
1626,3258,1899,1248
1627,3261,1824,1248
1628,3102,1824,1158
1629,3102,1761,1122
1630,3165,1761,1122
1631,3165,1485,1221
1632,3162,1290,1221
1633,3204,1290,1146
1634,3204,1251,1242
1635,3126,909,1242
1636,3126,909,1071
1637,3138,765,1071
1638,3033,765,1068
1639,3033,975,1137
1640,2853,561,1137
1641,2853,561,1206
1642,2877,297,1206
1643,3360,297,1272
1644,3360,627,1242
1645,3387,375,1242
1646,3387,375,1221
1647,3387,294,1221
1648,3120,294,1116
1649,3120,69,1122
1650,3138,-60,1122
1651,2895,-60,1128
1652,2895,-210,1128
1653,2922,-210,1086
1654,2922,-213,1023
1655,2985,-87,1023
1656,3033,-87,1107
1657,3033,-141,1041
1658,3213,-141,1041
1659,3213,-237,1197
1660,3276,-321,1197
1661,3435,-321,1164
1662,3435,-180,1143
1663,3462,-180,1143
1664,3462,-60,1116
1665,3525,-69,1116
1666,3669,-69,1083
1667,3669,15,1137
1668,3624,-6,1137
1669,3624,-6,1107
1670,3732,-24,1107
1671,3936,-24,1023
1672,3936,-27,1086
1673,4023,-39,1086
1674,4023,-39,1128
1675,3966,0,1128
1676,3939,0,1077
1677,3939,18,1077
1678,3888,-6,1077
1679,3789,-6,1101
1680,3789,-126,1101
1681,3711,-126,1071
1682,3711,-168,1071
1683,3519,-180,1071
1684,3264,-180,1047
1685,3264,-126,1047
1686,3180,-126,1011
1687,3180,-117,1008
1688,3105,9,1008
1689,3000,9,1047
1690,3000,111,1053
1691,3006,111,1053
1692,3006,234,1068
1693,2931,210,1068
1694,2883,210,1047
1695,2883,243,1068
1696,3102,243,1068
1697,3102,567,1143
1698,3102,759,1143
1699,3096,759,1092
1700,3096,657,1092
1701,3171,747,1092
1702,3171,747,1197
1703,3276,870,1197
1704,3411,870,1221
1705,3411,1089,1263
1706,3309,1146,1263
1707,3309,1146,1176
1708,3180,1338,1176
1709,3156,1338,1278
1710,3156,1353,1383
1711,3345,1362,1383
1712,3165,1362,1548
1713,3165,1518,1548
1714,2898,1518,1569
1715,2898,1791,1362
1716,2718,1851,1362
1717,2952,1851,1467
1718,2952,2070,1467
1719,2955,2070,1473
1720,2955,2220,1608
1721,3072,2505,1608
1722,2901,2505,1593
1723,2901,2502,1548
1724,2730,2502,1548
1725,2730,2628,1443
1726,2886,2862,1443
1727,3153,2862,1518
1728,3153,2970,1650
1729,3156,2970,1650
1730,3156,2916,1605
1731,2682,3024,1605
1732,2352,3024,1494
1733,2352,3024,1518
1734,2484,3282,1518
1735,2484,3282,1638
1736,2556,3486,1638
1737,2508,3486,1770
1738,2508,3690,1680
1739,2253,3546,1680
1740,2253,3546,1548
1741,2028,3564,1548
1742,1947,3564,1587
1743,1947,3345,1569
1744,1860,3405,1569
1745,1920,3405,1605
1746,1920,3759,1605
1747,1476,3759,1614
1748,1476,3867,1569
1749,1365,3915,1569
1750,1395,3915,1533
1751,1395,3906,1533
1752,1347,3906,1572
1753,1347,3816,1392
1754,1080,3942,1392
1755,999,3942,1413
1756,999,4059,1332
1757,1053,4059,1332
1758,1053,4437,1353
1759,1104,4272,1353
1760,1413,4272,1653
1761,1413,4269,1593
1762,1278,4269,1593
1763,1278,4770,1503
1764,1002,4656,1503
1765,1077,4656,1449
1766,1077,4410,1329
1767,921,4410,1329
1768,921,4086,1359
1769,816,3879,1359
1770,804,3879,1368
1771,804,4008,1404
1772,690,4140,1404
1773,690,4140,1383
1774,777,4146,1383
1775,735,4146,1422
1776,735,4074,1323
1777,591,3951,1323
1778,591,3951,1359
1779,486,3906,1359
1780,282,3906,1242
1781,282,3861,1236
1782,264,3756,1236
1783,264,3756,1197
1784,276,3954,1197
1785,246,3954,1197
1786,246,3891,1173
1787,267,3861,1173
1788,399,3861,1191
1789,399,3828,1191
1790,351,3828,1212
1791,351,3855,1248
1792,252,3846,1248
1793,216,3846,1218
1794,216,3933,1299
1795,270,3933,1299
1796,270,4002,1287
1797,231,3936,1287
1798,141,3936,1287
1799,141,3885,1257
1800,132,3885,1257
1801,132,3828,1236
1802,144,3834,1236
1803,198,3834,1272
1804,198,3888,1293
1805,363,3888,1293
1806,363,4101,1272
1807,546,4167,1272
1808,627,4167,1344
1809,627,3999,1434
1810,741,3942,1434
1811,741,3942,1353
1812,855,4029,1353
1813,897,4029,1419
1814,897,4074,1422
1815,1026,4116,1422
1816,1026,4116,1503
1817,1062,4215,1503
1818,1071,4215,1467
1819,1071,4110,1488
1820,1128,4080,1488
1821,1128,4080,1452
1822,1362,4089,1452
1823,1329,4089,1413
1824,1329,4071,1479
1825,1404,4167,1479
1826,1404,4167,1419
1827,1419,4095,1419
1828,1587,4095,1419
1829,1587,4131,1524
1830,1656,4104,1524
1831,1788,4104,1458
1832,1788,4155,1458
1833,1860,4155,1479
1834,1860,4101,1524
1835,1971,4107,1524
1836,1974,4107,1599
1837,1974,4125,1578
1838,2055,4125,1578
1839,2055,4089,1554
1840,1971,3954,1554
1841,2016,3954,1539
1842,2016,3762,1554
1843,2154,3762,1554
1844,2154,3708,1569
1845,2226,3642,1569
1846,2277,3642,1572
1847,2277,3510,1542
1848,2163,3510,1542
1849,2163,3306,1563
1850,2163,3078,1563
1851,2184,3078,1512
1852,2184,2940,1437
1853,2247,2859,1437
1854,2247,2859,1422
1855,2463,2880,1422
1856,2691,2880,1407
1857,2691,2718,1404
1858,3009,2538,1404
1859,3009,2538,1407
1860,3204,2487,1407
1861,3366,2487,1413
1862,3366,2421,1302
1863,3399,2310,1302
1864,3264,2310,1227
1865,3264,2097,1227
1866,3345,2097,1227
1867,3345,2052,1146
1868,3378,1953,1146
1869,3261,1953,1176
1870,3261,1752,1176
1871,3102,1752,1077
1872,3102,1422,1032
1873,3105,1311,1032
1874,3042,1311,972
1875,3042,1245,966
1876,2883,1245,966
1877,2883,1023,1038
1878,2802,909,1038
1879,2901,909,957
1880,2901,783,1038
1881,3009,783,1038
1882,3009,738,1092
1883,3135,432,1092
1884,3210,432,1122
1885,3210,309,1128
1886,3111,174,1128
1887,3111,174,1173
1888,3138,228,1173
1889,3039,228,1107
1890,3039,105,1227
1891,2916,-78,1227
1892,2916,-78,1212
1893,2832,-87,1212
1894,2931,-87,1344
1895,2931,-171,1332
1896,3162,-228,1332
1897,3162,-228,1404
1898,3279,-228,1404
1899,3360,-228,1434
1900,3360,-201,1428
1901,3435,-66,1428
1902,3447,-66,1422
1903,3447,-36,1422
1904,3591,-36,1485
1905,3591,-174,1458
1906,3618,-252,1458
1907,3711,-252,1398
1908,3711,-87,1398
1909,3678,-87,1398
1910,3678,-27,1344
1911,3663,-51,1344
1912,3780,-51,1347
1913,3780,-153,1347
1914,3831,-153,1347
1915,3831,-123,1338
1916,3834,-165,1338
1917,3756,-165,1308
1918,3756,-15,1317
1919,3663,-15,1317
1920,3663,39,1218
1921,3600,-123,1218
1922,3492,-123,1308
1923,3492,-267,1308
1924,3423,-108,1308
1925,3423,-108,1257
1926,3393,0,1257
1927,3291,0,1197
1928,3291,-75,1242
1929,3279,-24,1242
1930,3279,-24,1212
1931,3210,60,1212
1932,3174,60,1203
1933,3174,225,1257
1934,3258,180,1257
1935,3243,180,1266
1936,3243,195,1266
1937,3291,195,1248
1938,3291,342,1143
1939,3261,543,1143
1940,3576,543,1323
1941,3576,666,1323
1942,3630,666,1398
1943,3630,501,1434
1944,3450,528,1434
1945,3315,528,1353
1946,3315,594,1347
1947,3327,594,1347
1948,3327,798,1362
1949,3327,717,1362
1950,3255,717,1482
1951,3255,642,1467
1952,3153,642,1467
1953,3153,816,1413
1954,3060,957,1413
1955,3171,957,1524
1956,3171,1128,1584
1957,3216,1128,1584
1958,3216,1302,1653
1959,3246,1377,1653
1960,3225,1377,1650
1961,3225,1509,1593
1962,3039,1587,1593
1963,3039,1587,1563
1964,3240,1872,1563
1965,3120,1872,1557
1966,3120,1839,1638
1967,3177,1869,1638
1968,3177,1869,1554
1969,3243,2097,1554
1970,3261,2097,1620
1971,3261,2352,1650
1972,3129,2211,1650
1973,2976,2211,1659
1974,2976,2160,1659
1975,2844,2160,1599
1976,2844,2172,1593
1977,2928,2517,1593
1978,3045,2517,1779
1979,3045,2823,1779
1980,2715,2823,1725
1981,2715,2586,1803
1982,2676,2523,1803
1983,2562,2523,1653
1984,2562,2568,1749
1985,2619,2568,1749
1986,2619,2709,1719
1987,2613,3141,1719
1988,2316,3141,1833
1989,2316,3081,1800
1990,2016,3081,1800
1991,2016,2958,1824
1992,1956,3153,1824
1993,2232,3153,1890
1994,2232,3426,1944
1995,2304,3426,1944
1996,2304,3528,1905
1997,2298,3570,1905
1998,2112,3570,1893
1999,2112,3501,1878
2000,2028,3462,1878
2001,2028,3462,1758
2002,1941,3351,1758
2003,1866,3351,1833
2004,1866,3399,1809
2005,1689,3591,1809
2006,1689,3591,1854
2007,1569,3630,1854
2008,1551,3630,1824
2009,1551,3555,1914
2010,1533,3681,1914
2011,1533,3681,1884
2012,1536,3681,1884
2013,1398,3681,1878
2014,1398,3762,1713
2015,1332,3939,1713
2016,1194,3939,1650
2017,1194,3900,1650
2018,1260,3900,1695
2019,1260,3711,1800
2020,1320,3774,1800
2021,1323,3774,1668
2022,1323,3804,1710
2023,1227,3804,1710
2024,1227,3990,1674
2025,1086,3966,1674
2026,1017,3966,1728
2027,1017,3969,1695
2028,1062,3969,1695
2029,1062,3810,1578
2030,1074,3708,1578
2031,1098,3708,1569
2032,1098,3687,1587
2033,933,3687,1587
2034,933,3723,1605
2035,798,3672,1605
2036,762,3672,1668
2037,762,3708,1665
2038,771,3645,1665
2039,771,3645,1659
2040,714,3717,1659
2041,702,3717,1644
2042,702,3864,1695
2043,678,3756,1695
2044,678,3756,1629
2045,630,3708,1629
2046,663,3708,1623
2047,663,3630,1680
2048,627,3657,1680
2049,627,3657,1644
2050,552,3780,1644
2051,528,3780,1608
2052,528,3789,1539
2053,492,3702,1539
2054,501,3702,1584
2055,501,3651,1584
2056,474,3651,1587
2057,474,3708,1584
2058,420,3756,1584
2059,441,3756,1572
2060,441,3687,1572
2061,402,3687,1524
2062,402,3609,1623
2063,459,3690,1623
2064,405,3690,1653
2065,405,3795,1578
2066,438,3795,1578
2067,438,3753,1584
2068,369,3675,1584
2069,363,3675,1569
2070,363,3732,1599
2071,363,3732,1599
2072,363,3753,1608
2073,423,3735,1608
2074,456,3735,1533
2075,456,3714,1584
2076,507,3714,1584
2077,507,3777,1578
2078,492,3765,1578
2079,438,3765,1578
2080,438,3663,1578
2081,381,3657,1578
2082,381,3657,1605
2083,330,3636,1605
2084,357,3636,1509
2085,357,3681,1512
2086,390,3678,1512
2087,390,3678,1533
2088,348,3750,1533
2089,441,3750,1512
2090,441,3681,1554
2091,441,3642,1554
2092,441,3642,1464
2093,417,3663,1464
2094,453,3663,1527
2095,453,3714,1512
2096,435,3825,1512
2097,432,3825,1524
2098,432,3783,1524
2099,438,3783,1578
2100,438,3714,1599
2101,420,3699,1599
2102,483,3699,1512
2103,483,3705,1497
2104,477,3705,1497
2105,477,3732,1569
2106,510,3690,1569
2107,459,3690,1503
2108,459,3741,1533
2109,510,3741,1533
2110,510,3753,1620
2111,459,3759,1620
2112,390,3759,1572
2113,390,3693,1539
2114,408,3693,1539
2115,408,3663,1587
2116,468,3687,1587
2117,504,3687,1518
2118,504,3768,1533
2119,552,3774,1533
2120,552,3774,1554
2121,546,3786,1554
2122,486,3786,1605
2123,486,3732,1569
2124,492,3696,1569
2125,492,3696,1512
2126,477,3759,1512
2127,471,3759,1494
2128,471,3756,1572
2129,456,3756,1572
2130,483,3756,1554
2131,483,3693,1554
2132,483,3693,1527
2133,483,3684,1527
2134,456,3585,1527
2135,432,3585,1524
2136,432,3645,1524
2137,471,3645,1494
2138,471,3636,1527
2139,492,3648,1527
2140,450,3648,1527
2141,450,3615,1533
2142,468,3615,1533
2143,468,3648,1503
2144,519,3702,1503
2145,486,3702,1548
2146,486,3723,1548
2147,444,3723,1548
2148,444,3705,1533
2149,477,3726,1533
2150,486,3726,1572
2151,486,3795,1578
2152,507,3747,1578
2153,507,3747,1569
2154,513,3711,1569
2155,486,3711,1548
2156,486,3726,1557
2157,528,3747,1557
2158,528,3747,1593
2159,576,3726,1593
2160,468,3726,1599
2161,468,3750,1587
2162,507,3744,1587
2163,507,3744,1593
2164,486,3723,1593
2165,510,3723,1488
2166,510,3663,1509
2167,483,3714,1509
2168,483,3714,1533
2169,489,3741,1533
2170,555,3741,1494
2171,555,3741,1482
2172,471,3726,1482
2173,525,3726,1563
2174,525,3711,1563
2175,450,3711,1467
2176,450,3762,1518
2177,438,3702,1518
2178,450,3702,1434
2179,450,3747,1434
2180,471,3747,1512
2181,471,3765,1482
2182,465,3729,1482
2183,477,3729,1512
2184,477,3699,1572
2185,519,3699,1572
2186,519,3708,1464
2187,510,3687,1464
2188,483,3687,1578
2189,483,3696,1479
2190,432,3696,1479
2191,432,3675,1494
2192,435,3696,1494
2193,453,3696,1548
2194,453,3726,1539
2195,486,3726,1539
2196,486,3744,1584
2197,471,3792,1584
2198,489,3792,1563
2199,489,3801,1554
2200,432,3801,1554
2201,432,3813,1533
2202,402,3789,1533
2203,390,3789,1614
2204,390,3744,1572
2205,420,3717,1572
2206,420,3717,1635
2207,450,3783,1635
2208,459,3783,1524
2209,459,3783,1620
2210,495,3789,1620
2211,495,3789,1548
2212,495,3714,1548
2213,459,3714,1563
2214,459,3699,1503
2215,426,3690,1503
2216,426,3690,1497
2217,435,3708,1497
2218,474,3708,1497
2219,474,3708,1548
2220,489,3690,1548
2221,489,3690,1539
2222,534,3732,1539
2223,528,3732,1542
2224,528,3690,1527
2225,501,3678,1527
2226,519,3678,1467
2227,519,3702,1467
2228,534,3702,1527
2229,534,3705,1572
2230,519,3762,1572
2231,507,3762,1539
2232,507,3756,1578
2233,489,3756,1578
2234,489,3783,1527
2235,426,3753,1527
2236,456,3753,1542
2237,456,3732,1482
2238,387,3732,1482
2239,387,3735,1548
2240,420,3780,1548
2241,450,3780,1527
2242,450,3747,1473
2243,459,3747,1473
2244,459,3732,1518
2245,477,3696,1518
2246,405,3696,1542
2247,405,3657,1539
2248,384,3711,1539
2249,384,3711,1563
2250,420,3696,1563
2251,441,3696,1542
2252,441,3708,1527
2253,438,3732,1527
2254,438,3732,1497
2255,417,3726,1497
2256,450,3726,1482
2257,450,3681,1509
2258,459,3681,1509
2259,459,3681,1467
2260,426,3696,1467
2261,372,3696,1509
2262,372,3774,1533
2263,384,3792,1533
2264,414,3792,1503
2265,414,3738,1503
2266,405,3738,1482
2267,405,3708,1482
2268,483,3702,1482
2269,471,3702,1554
2270,471,3807,1554
2271,450,3807,1503
2272,450,3786,1512
2273,465,3744,1512
2274,465,3744,1509
2275,465,3714,1428
2276,405,3714,1428
2277,405,3726,1503
2278,405,3729,1503
2279,432,3729,1473
2280,432,3741,1467
2281,435,3741,1467
2282,435,3744,1524
2283,384,3750,1524
2284,432,3750,1557
2285,432,3750,1542
2286,393,3750,1542
2287,393,3741,1503
2288,402,3684,1503
2289,441,3684,1548
2290,441,3699,1620
2291,441,3699,1620
2292,441,3711,1572
2293,438,3756,1572
2294,456,3756,1509
2295,456,3765,1548
2296,435,3747,1548
2297,435,3747,1524
2298,432,3717,1524
2299,369,3717,1533
2300,369,3714,1464
2301,375,3723,1464
2302,375,3723,1527
2303,414,3723,1527
2304,369,3723,1524
2305,369,3774,1509
2306,405,3729,1509
2307,405,3729,1512
2308,399,3696,1512
2309,402,3696,1503
2310,402,3747,1503
2311,423,3717,1503
2312,390,3717,1452
2313,390,3777,1452
2314,459,3777,1497
2315,459,3777,1497
2316,417,3714,1497
2317,444,3714,1488
2318,444,3687,1488
2319,477,3687,1488
2320,477,3777,1539
2321,489,3786,1539
2322,525,3786,1482
2323,525,3765,1527
2324,501,3765,1527
2325,501,3729,1497
2326,558,3744,1497
2327,591,3744,1479
2328,591,3828,1557
2329,690,3828,1557
2330,690,3870,1548
2331,744,3846,1548
2332,852,3846,1527
2333,852,3678,1548
2334,921,3678,1548
2335,921,3621,1638
2336,1128,3753,1638
2337,1299,3753,1743
2338,1299,3969,1794
2339,1494,4155,1794
2340,1494,4155,1941
2341,1794,4257,1941
2342,1968,4257,1929
2343,1968,4233,1944
2344,1935,4020,1944
2345,1935,4020,1860
2346,1971,4038,1860
2347,2157,4038,1899
2348,2157,4242,1980
2349,2355,4368,1980
2350,2457,4368,2019
2351,2457,4428,2019
2352,2490,4428,1974
2353,2490,4401,1941
2354,2466,4338,1941
2355,2397,4338,1869
2356,2397,4350,1869
2357,2442,4350,1794
2358,2442,4359,1695
2359,2442,4065,1695
2360,2475,4065,1704
2361,2475,3843,1698
2362,2463,3843,1698
2363,2463,3891,1629
2364,2661,3954,1629
2365,2586,3954,1542
2366,2586,3504,1512
2367,2610,3504,1512
2368,2610,3309,1503
2369,2541,3069,1503
2370,2775,3069,1443
2371,2775,3105,1467
2372,2835,2907,1467
2373,2835,2907,1413
2374,2868,2676,1413
2375,2868,2676,1347
2376,2868,2418,1377
2377,2970,2301,1377
2378,2970,2301,1362
2379,3006,2019,1362
2380,2940,2019,1347
2381,2940,1830,1278
2382,2952,1707,1278
2383,2952,1707,1206
2384,2790,1215,1206
2385,2895,1215,1182
2386,2895,1248,1122
2387,2793,1050,1122
2388,2610,1050,1098
2389,2610,702,1098
2390,2604,702,1047
2391,2604,603,1098
2392,2499,240,1098
2393,2217,240,1056
2394,2217,-96,1056
2395,2298,-96,978
2396,2298,-165,942
2397,2490,-12,942
2398,2724,-12,987
2399,2724,159,1062
2400,2829,159,1062
2401,2829,-195,1023
2402,2889,-318,1023
2403,3138,-318,1071
2404,3138,-318,1071
2405,3159,-318,1071
2406,3159,-198,1062
2407,3378,-66,1062
2408,3432,-66,1047
2409,3432,-306,1167
2410,3432,-396,1167
2411,3432,-396,1188
2412,3537,-465,1188
2413,3636,-465,1197
2414,3636,-396,1149
2415,3594,-267,1149
2416,3594,-267,1143
2417,3636,-186,1143
2418,3624,-186,1152
2419,3624,-285,1167
2420,3570,-465,1167
2421,3570,-465,1287
2422,3714,-426,1287
2423,3762,-426,1284
2424,3762,-237,1317
2425,3768,-171,1317
2426,3870,-171,1242
2427,3870,12,1242
2428,3843,12,1308
2429,3843,-150,1332
2430,3900,-189,1332
2431,3897,-189,1278
2432,3897,-111,1278
2433,3897,-111,1233
2434,3897,15,1206
2435,3849,-60,1206
2436,3816,-60,1179
2437,3816,-192,1233
2438,3795,-192,1233
2439,3795,-213,1209
2440,3759,-165,1209
2441,3603,-165,1227
2442,3603,-186,1197
2443,3381,-186,1197
2444,3381,-267,1188
2445,3204,-285,1188
2446,3204,-285,1173
2447,3204,-159,1203
2448,3144,-159,1203
2449,3144,-129,1134
2450,3021,-108,1134
2451,3111,-108,1134
2452,3111,132,1167
2453,3165,132,1167
2454,3165,186,1236
2455,3456,234,1236
2456,3360,234,1242
2457,3360,339,1236
2458,3264,510,1236
2459,3264,510,1233
2460,3276,480,1233
2461,3333,480,1323
2462,3333,426,1317
2463,3525,618,1317
2464,3525,618,1383
2465,3282,693,1383
2466,3213,693,1449
2467,3213,801,1482
2468,3174,888,1482
2469,3174,888,1479
2470,3105,921,1479
2471,3042,921,1509
2472,3042,978,1509
2473,2907,1098,1509
2474,3096,1098,1533
2475,3096,1473,1533
2476,3045,1473,1713
2477,3045,1611,1755
2478,2970,1725,1755
2479,2802,1725,1680
2480,2802,1827,1623
2481,2799,1827,1623
2482,2799,1830,1728
2483,3090,2127,1728
2484,3174,2127,1869
2485,3174,2430,1803
2486,3189,2430,1803
2487,3189,2523,1839
2488,3087,2424,1839
2489,3054,2424,1695
2490,3054,2400,1773
2491,3213,2400,1773
2492,3213,2607,1725
2493,3285,2829,1725
2494,3009,2829,1728
2495,3009,2679,1713
2496,2784,2679,1713
2497,2784,2625,1680
2498,2559,2625,1680
2499,2463,2625,1638
2500,2463,2514,1698
2501,2481,2829,1698
2502,2481,2829,1794
2503,2226,3090,1794
2504,2043,3090,1794
2505,2043,3240,1695
2506,1956,3138,1695
2507,1956,3138,1788
2508,1908,3111,1788
2509,1902,3111,1860
2510,1902,3285,1749
2511,1908,3774,1749
2512,1908,3774,1830
2513,1836,3897,1830
2514,1971,3897,1755
2515,1971,3756,1875
2516,1914,3714,1875
2517,1914,3714,1869
2518,1914,3765,1869
2519,1719,3765,1818
2520,1719,3906,1809
2521,1602,4053,1809
2522,1473,4053,1779
2523,1473,3888,1779
2524,1386,3888,1773
2525,1386,3801,1749
2526,1347,3795,1749
2527,1320,3795,1770
2528,1320,3780,1770
2529,1296,3780,1809
2530,1296,3816,1920
2531,1191,4161,1920
2532,1071,4161,1815
2533,1071,4278,1788
2534,1023,4278,1788
2535,1023,4050,1845
2536,1029,3810,1845
2537,975,3810,1878
2538,975,3819,1785
2539,969,3819,1785
2540,969,3957,1695
2541,966,4041,1695
2542,954,4041,1773
2543,954,3966,1725
2544,954,3966,1725
2545,954,3834,1734
2546,837,3783,1734
2547,732,3783,1623
2548,732,3792,1554
2549,693,3846,1554
2550,693,3846,1542
2551,714,3783,1542
2552,573,3783,1548
2553,573,3681,1593
2554,525,3678,1593
2555,525,3678,1452
2556,453,3699,1452
2557,435,3699,1473
2558,435,3792,1398
2559,459,3753,1398
2560,459,3753,1494
2561,423,3684,1494
2562,435,3684,1377
2563,435,3663,1368
2564,420,3681,1368
2565,456,3681,1374
2566,456,3777,1374
2567,453,3777,1347
2568,453,3777,1449
2569,489,3726,1449
2570,504,3726,1452
2571,504,3735,1362
2572,423,3735,1362
2573,423,3750,1398
2574,420,3810,1398
2575,393,3810,1398
2576,393,3777,1452
2577,390,3777,1452
2578,390,3765,1449
2579,426,3693,1449
2580,381,3693,1443
2581,381,3741,1482
2582,417,3741,1482
2583,417,3741,1503
2584,351,3780,1503
2585,351,3780,1482
2586,351,3798,1467
2587,423,3759,1467
2588,423,3759,1488
2589,450,3774,1488
2590,468,3774,1494
2591,468,3738,1452
2592,393,3723,1452
2593,393,3723,1422
2594,369,3756,1422
2595,402,3756,1434
2596,402,3867,1452
2597,441,3852,1452
2598,441,3852,1479
2599,432,3735,1479
2600,432,3735,1443
2601,432,3717,1413
2602,405,3765,1413
2603,432,3765,1398
2604,432,3858,1398
2605,453,3858,1443
2606,453,3774,1452
2607,414,3765,1452
2608,438,3765,1479
2609,438,3759,1428
2610,414,3759,1428
2611,414,3759,1359
2612,384,3750,1359
2613,405,3750,1368
2614,405,3801,1404
2615,414,3801,1404
2616,414,3804,1422
2617,381,3738,1422
2618,399,3738,1407
2619,399,3774,1374
2620,420,3774,1374
2621,420,3777,1428
2622,381,3834,1428
2623,408,3834,1404
2624,408,3768,1434
2625,414,3768,1434
2626,414,3774,1524
2627,423,3735,1524
2628,426,3735,1473
2629,426,3783,1419
2630,384,3855,1419
2631,384,3855,1413
2632,354,3726,1413
2633,369,3726,1359
2634,369,3666,1392
2635,450,3738,1392
2636,450,3738,1368
2637,486,3747,1368
2638,501,3747,1392
2639,501,3783,1419
2640,513,3897,1419
2641,513,3897,1359
2642,444,3876,1359
2643,456,3876,1437
2644,456,3780,1368
2645,438,3723,1368
2646,417,3723,1422
2647,417,3690,1422
2648,441,3690,1413
2649,441,3747,1434
2650,483,3834,1434
2651,468,3834,1428
2652,468,3840,1428
2653,450,3840,1383
2654,450,3747,1392
2655,438,3714,1392
2656,408,3714,1407
2657,408,3702,1407
2658,426,3702,1374
2659,426,3786,1347
2660,465,3876,1347
2661,474,3876,1428
2662,474,3816,1467
2663,435,3816,1467
2664,435,3687,1437
2665,426,3693,1437
2666,399,3693,1392
2667,399,3750,1374
2668,414,3750,1374
2669,414,3798,1398
2670,438,3786,1398
2671,486,3786,1443
2672,486,3759,1437
2673,423,3759,1437
2674,423,3840,1377
2675,444,3813,1377
2676,375,3813,1407
2677,375,3843,1389
2678,453,3783,1389
2679,453,3783,1368
2680,459,3795,1368
2681,507,3795,1407
2682,507,3768,1407
2683,435,3846,1407
2684,435,3846,1434
2685,471,3786,1434
2686,444,3786,1404
2687,444,3813,1404
2688,456,3729,1404
2689,456,3729,1392
2690,417,3750,1392
2691,426,3750,1383
2692,426,3807,1368
2693,423,3843,1368
2694,420,3843,1404
2695,420,3804,1404
2696,390,3804,1413
2697,390,3756,1362
2698,408,3717,1362
2699,483,3717,1347
2700,483,3759,1347
2701,519,3759,1383
2702,519,3786,1332
2703,489,3786,1332
2704,417,3786,1353
2705,417,3747,1377
2706,402,3747,1377
2707,402,3729,1314
2708,426,3765,1314
2709,438,3765,1359
2710,438,3795,1338
2711,459,3795,1338
2712,459,3837,1362
2713,474,3792,1362
2714,435,3792,1353
2715,435,3831,1428
2716,420,3831,1428
2717,420,3783,1236
2718,363,3819,1236
2719,408,3819,1383
2720,408,3777,1344
2721,369,3825,1344
2722,369,3825,1419
2723,387,3840,1419
2724,390,3840,1413
2725,390,3831,1428
2726,435,3819,1428
2727,435,3819,1323
2728,435,3774,1323
2729,426,3774,1347
2730,426,3750,1392
2731,405,3762,1392
2732,405,3762,1377
2733,390,3849,1377
2734,393,3849,1359
2735,393,3807,1407
2736,414,3753,1407
2737,414,3753,1362
2738,363,3753,1362
2739,399,3753,1419
2740,399,3837,1377
2741,372,3846,1377
2742,375,3846,1392
2743,375,3840,1392
2744,330,3840,1323
2745,330,3798,1383
2746,369,3744,1383
2747,465,3744,1299
2748,465,3792,1362
2749,444,3792,1362
2750,444,3837,1329
2751,507,3828,1329
2752,543,3828,1359
2753,543,3819,1404
2754,570,3819,1404
2755,570,3756,1443
2756,543,3843,1443
2757,726,3843,1452
2758,726,3960,1527
2759,831,3960,1527
2760,831,4071,1578
2761,993,4014,1578
2762,1200,4014,1572
2763,1200,4134,1638
2764,1443,4068,1638
2765,1443,4068,1719
2766,1605,3966,1719
2767,1695,3966,1764
2768,1695,4035,1833
2769,1851,4119,1833
2770,1851,4119,1728
2771,1914,4215,1728
2772,1884,4215,1818
2773,1884,3999,1833
2774,1872,3849,1833
2775,1872,3849,1740
2776,1947,3990,1740
2777,2022,3990,1740
2778,2022,4014,1734
2779,2229,4014,1734
2780,2349,4014,1779
2781,2349,4065,1779
2782,2472,4065,1770
2783,2472,4146,1704
2784,2532,4056,1704
2785,2538,4056,1734
2786,2538,3978,1734
2787,2640,3978,1710
2788,2640,3912,1734
2789,2730,3909,1734
2790,2688,3909,1779
2791,2688,3882,1758
2792,2622,3882,1758
2793,2622,3789,1695
2794,2517,3462,1695
2795,2712,3462,1704
2796,2712,3384,1725
2797,2781,3384,1725
2798,2781,3201,1704
2799,2859,3102,1704
2800,3090,3102,1620
2801,3090,3105,1578
2802,3003,3105,1578
2803,3003,2766,1569
2804,3036,2532,1569
2805,3243,2532,1548
2806,3243,2457,1569
2807,3249,2214,1569
2808,3249,2214,1512
2809,3315,2169,1512
2810,3405,2169,1479
2811,3405,2328,1479
2812,3105,1836,1479
2813,3105,1836,1407
2814,3015,1413,1407
2815,2868,1413,1347
2816,2868,1122,1188
2817,2886,855,1188
2818,2886,855,1173
2819,2757,771,1173
2820,2484,771,1092
2821,2484,453,978
2822,2262,57,978
2823,1938,57,1086
2824,1938,-141,1086
2825,1683,-141,1092
2826,1683,-228,1137
2827,1647,-321,1137
2828,1431,-321,1113
2829,1431,-537,1113
2830,1749,-537,1134
2831,1749,-588,1233
2832,2067,-459,1233
2833,2379,-459,1434
2834,2379,-387,1473
2835,2766,-387,1473
2836,2766,-393,1458
2837,2922,-474,1458
2838,3276,-474,1533
2839,3276,-471,1599
2840,3441,-471,1599
2841,3441,-438,1629
2842,3663,-510,1629
2843,3708,-510,1620
2844,3708,-429,1599
2845,3489,-429,1599
2846,3489,-558,1623
2847,3474,-573,1623
2848,3300,-573,1563
2849,3300,-603,1563
2850,3093,-555,1563
2851,3093,-555,1494
2852,3066,-417,1494
2853,2970,-417,1464
2854,2970,-333,1533
2855,3039,-228,1533
2856,3039,-228,1374
2857,2922,-252,1374
2858,3156,-252,1362
2859,3156,21,1392
2860,3024,42,1392
2861,3024,42,1278
2862,2976,36,1278
2863,2622,36,1221
2864,2622,57,1161
2865,2421,171,1161
2866,2580,171,1233
2867,2580,438,1233
2868,2475,438,1257
2869,2475,654,1368
2870,2511,867,1368
2871,2535,867,1413
2872,2535,1038,1413
2873,2472,1038,1398
2874,2472,1113,1479
2875,2505,1152,1479
2876,2370,1152,1488
2877,2370,1281,1557
2878,2898,1281,1557
2879,2898,1953,1695
2880,3189,2301,1695
2881,3336,2301,1848
2882,3336,2289,1893
2883,3042,2289,1893
2884,3042,2187,1848
2885,2991,2313,1848
2886,3027,2313,1929
2887,3027,2508,1869
2888,3024,2739,1869
2889,3024,2739,1986
2890,2673,2712,1986
2891,2316,2712,1908
2892,2316,2718,1845
2893,2412,3015,1845
2894,2412,3015,2010
2895,2532,3444,2010
2896,2505,3444,2175
2897,2505,3573,2214
2898,2403,3837,2214
2899,2403,3837,1959
2900,2052,3840,1959
2901,1887,3840,1950
2902,1887,3639,1980
2903,1833,3525,1980
2904,1881,3525,2145
2905,1881,3960,2145
2906,1608,3960,2136
2907,1608,4191,2070
2908,1500,4293,2070
2909,1395,4293,1980
2910,1395,4203,1980
2911,1356,4203,1875
2912,1356,4056,1971
2913,1356,3849,1971
2914,1296,3849,2094
2915,1296,4176,2094
2916,1227,4176,2034
2917,1227,4665,2055
2918,1248,4800,2055
2919,1389,4800,2061
2920,1389,4605,2085
2921,1407,4605,2085
2922,1407,4473,2091
2923,1464,4314,2091
2924,1557,4314,2055
2925,1557,4245,1959
2926,1413,4245,1959
2927,1413,4200,1848
2928,1305,4029,1848
2929,1140,4029,1773
2930,1140,3915,1725
2931,990,3915,1725
2932,990,3813,1623
2933,882,3807,1623
2934,624,3807,1599
2935,624,3858,1512
2936,552,3717,1512
2937,552,3717,1443
2938,477,3633,1443
2939,489,3633,1419
2940,489,3612,1482
2941,438,3759,1482
2942,438,3759,1497
2943,405,3759,1497
2944,444,3759,1437
2945,444,3732,1428
2946,363,3675,1428
2947,363,3675,1467
2948,420,3690,1467
2949,288,3690,1557
2950,288,3807,1524
2951,288,3837,1524
2952,285,3837,1494
2953,285,3753,1494
2954,231,3753,1452
2955,231,3699,1479
2956,201,3651,1479
2957,180,3651,1503
2958,180,3699,1479
2959,63,3699,1479
2960,63,3741,1503
2961,168,3675,1503
2962,177,3675,1524
2963,177,3630,1524
2964,126,3630,1524
2965,126,3717,1533
2966,177,3699,1533
2967,195,3699,1509
2968,195,3696,1494
2969,198,3696,1494
2970,198,3729,1563
2971,246,3744,1563
2972,279,3744,1572
2973,279,3717,1578
2974,246,3717,1578
2975,246,3807,1572
2976,243,3768,1572
2977,243,3768,1623
2978,243,3729,1584
2979,192,3672,1584
2980,192,3672,1659
2981,207,3666,1659
2982,246,3666,1593
2983,246,3753,1563
2984,261,3750,1563
2985,261,3750,1653
2986,303,3810,1653
2987,339,3810,1614
2988,339,3765,1635
2989,315,3678,1635
2990,315,3678,1629
2991,297,3690,1629
2992,300,3690,1593
2993,300,3690,1578
2994,312,3780,1578
2995,312,3780,1593
2996,348,3792,1593
2997,330,3792,1578
2998,330,3738,1572
2999,402,3738,1572
3000,330,3738,1479
3001,330,3759,1479
3002,306,3759,1578
3003,306,3753,1512
3004,306,3681,1512
3005,318,3681,1524
3006,318,3684,1524
3007,384,3684,1479
3008,384,3717,1503
3009,390,3765,1503
3010,333,3765,1542
3011,333,3750,1527
3012,384,3750,1527
3013,384,3711,1479
3014,393,3729,1479
3015,363,3729,1509
3016,363,3744,1512
3017,357,3744,1512
3018,357,3789,1497
3019,303,3756,1497
3020,345,3756,1527
3021,345,3714,1479
3022,345,3735,1479
3023,345,3735,1497
3024,336,3765,1497
3025,345,3765,1518
3026,345,3753,1578
3027,345,3732,1578
3028,345,3732,1518
3029,369,3705,1518
3030,384,3705,1527
3031,384,3702,1494
3032,333,3810,1494
3033,333,3810,1497
3034,318,3753,1497
3035,363,3753,1509
3036,363,3774,1512
3037,366,3714,1512
3038,318,3714,1494
3039,318,3729,1494
3040,336,3729,1518
3041,336,3738,1479
3042,303,3759,1479
3043,330,3759,1473
3044,330,3732,1509
3045,372,3732,1509
3046,372,3717,1524
3047,381,3777,1524
3048,405,3777,1548
3049,405,3801,1539
3050,375,3801,1539
3051,375,3783,1512
3052,387,3753,1512
3053,381,3753,1512
3054,381,3687,1533
3055,357,3687,1533
3056,357,3765,1620
3057,330,3774,1620
3058,276,3774,1449
3059,276,3768,1569
3060,333,3768,1569
3061,333,3741,1563
3062,345,3762,1563
3063,381,3762,1518
3064,381,3726,1524
3065,333,3732,1524
3066,333,3732,1473
3067,345,3726,1473
3068,297,3726,1497
3069,297,3753,1488
3070,297,3765,1488
3071,297,3765,1473
3072,261,3807,1473
3073,345,3807,1512
3074,345,3723,1512
3075,306,3705,1512
3076,306,3705,1488
3077,387,3717,1488
3078,426,3717,1452
3079,426,3717,1482
3080,333,3786,1482
3081,312,3786,1458
3082,312,3774,1458
3083,324,3774,1518
3084,324,3732,1458
3085,321,3708,1458
3086,288,3708,1512
3087,288,3765,1533
3088,384,3765,1533
3089,384,3738,1503
3090,363,3783,1503
3091,354,3783,1404
3092,354,3747,1503
3093,384,3747,1503
3094,384,3777,1434
3095,348,3729,1434
3096,312,3729,1488
3097,312,3702,1413
3098,324,3702,1413
3099,324,3732,1479
3100,351,3828,1479
3101,369,3828,1437
3102,369,3846,1482
3103,369,3834,1482
3104,369,3834,1434
3105,372,3768,1434
3106,384,3768,1479
3107,384,3717,1482
3108,357,3747,1482
3109,357,3747,1473
3110,315,3774,1473
3111,357,3774,1467
3112,357,3789,1503
3113,414,3816,1503
3114,414,3816,1494
3115,345,3750,1494
3116,357,3750,1497
3117,357,3723,1533
3118,321,3807,1533
3119,315,3807,1452
3120,315,3804,1452
3121,354,3804,1464
3122,354,3759,1479
3123,399,3756,1479
3124,381,3756,1527
3125,381,3750,1437
3126,351,3750,1437
3127,351,3693,1434
3128,366,3705,1434
3129,417,3705,1443
3130,417,3660,1464
3131,390,3660,1464
3132,390,3702,1527
3133,444,3795,1527
3134,414,3795,1467
3135,414,3927,1533
3136,405,3927,1533
3137,405,3837,1494
3138,354,3759,1494
3139,333,3759,1464
3140,333,3780,1464
3141,408,3813,1464
3142,408,3813,1512
3143,504,3900,1512
3144,606,3900,1518
3145,606,3837,1497
3146,678,3780,1497
3147,678,3780,1599
3148,759,3690,1599
3149,903,3690,1539
3150,903,3846,1548
3151,1017,3936,1548
3152,1017,3936,1554
3153,1206,4134,1554
3154,1296,4134,1755
3155,1296,4206,1764
3156,1323,4257,1764
3157,1488,4257,1773
3158,1488,4032,1773
3159,1578,4032,1683
3160,1578,3831,1734
3161,1818,3792,1734
3162,1869,3792,1800
3163,1869,4020,1779
3164,1950,4020,1779
3165,1950,4164,1698
3166,2004,4005,1698
3167,2058,4005,1749
3168,2058,3759,1809
3169,2127,3759,1809
3170,2127,3774,1779
3171,2154,3897,1779
3172,2157,3897,1653
3173,2157,4008,1725
3174,2208,4008,1725
3175,2208,3894,1830
3176,2382,3801,1830
3177,2286,3801,1890
3178,2286,3747,1860
3179,2388,3762,1860
3180,2388,3762,1800
3181,2328,3624,1800
3182,2511,3624,1833
3183,2511,3540,1863
3184,2742,3597,1863
3185,2742,3597,2016
3186,2820,3675,2016
3187,2973,3675,1959
3188,2973,3492,1920
3189,3108,3423,1920
3190,3108,3423,1893
3191,3042,3297,1893
3192,3135,3297,1839
3193,3135,3234,1803
3194,3414,3489,1803
3195,3414,3489,1860
3196,3456,3600,1860
3197,3414,3600,1884
3198,3414,3117,1764
3199,3378,2490,1764
3200,2982,2490,1719
3201,2982,1758,1719
3202,2796,1758,1587
3203,2796,1452,1362
3204,2454,1218,1362
3205,2349,1218,1251
3206,2349,1020,1251
3207,1869,1020,1092
3208,1869,729,1068
3209,1557,108,1068
3210,1380,108,945
3211,1380,-243,891
3212,1128,-243,891
3213,1128,-405,843
3214,1416,-282,843
3215,1677,-282,912
3216,1677,-297,972
3217,1869,-297,972
3218,1869,-396,1068
3219,2229,-270,1068
3220,2586,-270,1257
3221,2586,-231,1419
3222,2817,-231,1419
3223,2817,-336,1398
3224,2919,-465,1398
3225,3240,-465,1404
3226,3240,-294,1407
3227,3210,-285,1407
3228,3210,-285,1428
3229,3159,-171,1428
3230,3102,-171,1437
3231,3102,-36,1485
3232,3126,-129,1485
3233,3126,-129,1569
3234,3204,-126,1569
3235,3141,-126,1545
3236,3141,-33,1509
3237,2928,12,1509
3238,2928,12,1422
3239,3009,126,1422
3240,3192,126,1449
3241,3192,225,1587
3242,3258,234,1587
3243,3069,234,1578
3244,3069,381,1578
3245,3033,381,1413
3246,3033,618,1419
3247,2895,531,1419
3248,2835,531,1437
3249,2835,594,1434
3250,2640,594,1434
3251,2640,675,1374
3252,2556,897,1374
3253,2535,897,1404
3254,2535,1209,1413
3255,2523,1209,1413
3256,2523,1362,1548
3257,2658,1614,1548
3258,2640,1614,1605
3259,2640,1671,1674
3260,2748,1671,1674
3261,2748,1743,1719
3262,2505,2118,1719
3263,2811,2118,1749
3264,2811,2571,1995
3265,2934,2703,1995
3266,2934,2703,1995
3267,2748,2454,1995
3268,2475,2454,1971
3269,2475,2322,1788
3270,2724,3099,1788
3271,2724,3099,2061
3272,2646,3249,2061
3273,2850,3249,2226
3274,2850,3408,2151
3275,2472,3342,2151
3276,2115,3342,2091
3277,2115,3297,2091
3278,1941,3297,1914
3279,1941,3135,1914
3280,1830,3126,1914
3281,1827,3126,2019
3282,1827,3519,2019
3283,1560,3519,1980
3284,1560,3978,1959
3285,1500,3936,1959
3286,1416,3936,1869
3287,1416,3825,1893
3288,1374,3825,1893
3289,1374,3753,2064
3290,1563,4089,2064
3291,1275,4089,2139
3292,1275,4539,2085
3293,1215,4539,2085
3294,1215,4704,2034
3295,1224,4605,2034
3296,1383,4605,2076
3297,1383,4437,2061
3298,1347,4437,2061
3299,1347,4359,1971
3300,1425,4194,1971
3301,1248,4194,2070
3302,1248,4350,2055
3303,1149,4545,2055
3304,1149,4545,1926
3305,1164,4380,1926
3306,1026,4380,1974
3307,1026,4110,1914
3308,990,3840,1914
3309,990,3840,1779
3310,795,3942,1779
3311,729,3942,1704
3312,729,4023,1593
3313,657,3921,1593
3314,615,3921,1584
3315,615,3768,1584
3316,579,3768,1503
3317,579,3705,1452
3318,504,3765,1452
3319,519,3765,1407
3320,519,3777,1407
3321,486,3777,1332
3322,486,3786,1359
3323,414,3786,1359
3324,312,3786,1404
3325,312,3807,1458
3326,228,3807,1458
3327,228,3819,1374
3328,195,3798,1374
3329,201,3798,1422
3330,201,3783,1443
3331,165,3783,1443
3332,165,3735,1419
3333,195,3723,1419
3334,180,3723,1542
3335,180,3759,1542
3336,192,3759,1542
3337,192,3861,1497
3338,132,3765,1497
3339,144,3765,1494
3340,144,3612,1572
3341,117,3651,1572
3342,117,3651,1569
3343,87,3750,1569
3344,30,3750,1512
3345,30,3729,1578
3346,12,3786,1578
3347,12,3786,1494
3348,78,3714,1494
3349,117,3714,1527
3350,117,3693,1518
3351,177,3735,1518
3352,198,3735,1422
3353,198,3756,1422
3354,252,3756,1488
3355,252,3795,1539
3356,219,3861,1539
3357,225,3861,1572
3358,225,3792,1572
3359,174,3792,1563
3360,174,3762,1533
3361,99,3699,1533
3362,75,3699,1527
3363,75,3783,1557
3364,117,3783,1557
3365,117,3816,1569
3366,159,3747,1569
3367,246,3747,1494
3368,246,3843,1569
3369,249,3843,1569
3370,249,3798,1563
3371,210,3795,1563
3372,156,3795,1497
3373,156,3741,1479
3374,195,3741,1479
3375,195,3753,1452
3376,174,3747,1452
3377,210,3747,1449
3378,210,3783,1464
3379,183,3807,1464
3380,183,3807,1533
3381,165,3759,1533
3382,243,3759,1473
3383,243,3723,1422
3384,246,3687,1422
3385,246,3687,1518
3386,210,3696,1518
3387,237,3696,1467
3388,237,3783,1419
3389,261,3828,1419
3390,261,3828,1488
3391,279,3816,1488
3392,261,3816,1488
3393,261,3690,1539
3394,303,3681,1539
3395,282,3681,1449
3396,282,3717,1449
3397,279,3717,1488
3398,279,3825,1509
3399,264,3849,1509
3400,300,3849,1503
3401,300,3813,1503
3402,216,3813,1494
3403,216,3723,1527
3404,234,3741,1527
3405,252,3741,1488
3406,252,3804,1512
3407,255,3804,1512
3408,255,3795,1482
3409,255,3735,1482
3410,252,3735,1458
3411,252,3702,1479
3412,234,3702,1479
3413,234,3693,1449
3414,285,3735,1449
3415,261,3735,1434
3416,261,3738,1497
3417,303,3738,1497
3418,303,3738,1437
3419,330,3756,1437
3420,354,3756,1509
3421,354,3783,1488
3422,330,3768,1488
3423,330,3768,1488
3424,288,3726,1488
3425,303,3726,1428
3426,303,3714,1473
3427,276,3765,1473
3428,276,3765,1497
3429,288,3831,1497
3430,303,3831,1569
3431,303,3801,1578
3432,303,3828,1578
3433,303,3828,1494
3434,249,3837,1494
3435,225,3837,1533
3436,225,3759,1512
3437,261,3765,1512
3438,261,3765,1518
3439,336,3795,1518
3440,357,3795,1539
3441,357,3792,1518
3442,288,3834,1518
3443,270,3834,1527
3444,270,3798,1527
3445,252,3798,1563
3446,252,3732,1542
3447,246,3714,1542
3448,264,3714,1494
3449,264,3735,1569
3450,315,3735,1569
3451,315,3840,1533
3452,324,3843,1533
3453,237,3843,1527
3454,237,3795,1494
3455,207,3795,1494
3456,207,3699,1434
3457,210,3630,1434
3458,207,3630,1524
3459,207,3657,1527
3460,198,3657,1527
3461,198,3723,1548
3462,213,3762,1548
3463,198,3762,1473
3464,198,3735,1464
3465,225,3732,1464
3466,225,3732,1473
3467,216,3750,1473
3468,276,3750,1458
3469,276,3819,1503
3470,195,3861,1503
3471,195,3861,1479
3472,237,3807,1479
3473,351,3807,1464
3474,351,3762,1443
3475,321,3804,1443
3476,321,3804,1509
3477,366,3825,1509
3478,399,3825,1524
3479,399,3897,1503
3480,450,3831,1503
3481,432,3831,1542
3482,432,3702,1542
3483,393,3702,1554
3484,393,3747,1605
3485,357,3774,1605
3486,351,3774,1518
3487,351,3708,1518
3488,354,3708,1572
3489,354,3639,1509
3490,345,3603,1509
3491,369,3603,1503
3492,369,3723,1572
3493,375,3723,1572
3494,375,3774,1587
3495,393,3708,1587
3496,333,3708,1593
3497,333,3717,1608
3498,246,3717,1608
3499,246,3750,1665
3500,243,3705,1665
3501,192,3705,1638
3502,192,3606,1539
3503,243,3606,1539
3504,243,3588,1599
3505,219,3654,1599
3506,297,3654,1683
3507,297,3759,1614
3508,306,3702,1614
3509,306,3702,1605
3510,282,3666,1605
3511,231,3666,1623
3512,231,3675,1614
3513,225,3591,1614
3514,225,3591,1539
3515,261,3639,1539
3516,297,3639,1578
3517,297,3702,1620
3518,363,3711,1620
3519,363,3711,1644
3520,348,3636,1644
3521,384,3636,1605
3522,384,3603,1668
3523,369,3663,1668
3524,324,3663,1584
3525,324,3654,1584
3526,318,3654,1683
3527,318,3663,1599
3528,297,3672,1599
3529,288,3672,1629
3530,288,3603,1587
3531,354,3603,1587
3532,354,3672,1629
3533,465,3681,1629
3534,609,3681,1578
3535,609,3729,1650
3536,771,3729,1650
3537,771,3810,1704
3538,849,3867,1704
3539,1008,3867,1680
3540,1008,3963,1758
3541,1266,3963,1758
3542,1266,4116,1863
3543,1335,4011,1863
3544,1395,4011,1794
3545,1395,4065,1788
3546,1419,4065,1788
3547,1419,4101,1845
3548,1383,4206,1845
3549,1533,4206,1794
3550,1533,4215,2001
3551,1758,4260,2001
3552,1758,4260,1965
3553,1881,4347,1965
3554,2097,4347,2079
3555,2097,4374,2070
3556,2190,4293,2070
3557,2190,4293,1995
3558,2280,4212,1995
3559,2385,4212,2175
3560,2385,4302,2145
3561,2631,4461,2145
3562,2733,4461,2205
3563,2733,4560,2205
3564,2535,4560,2316
3565,2535,4452,2247
3566,2310,4245,2247
3567,2211,4245,2196
3568,2211,4065,2196
3569,2073,4065,2136
3570,2073,3762,2049
3571,2250,3795,2049
3572,2166,3795,2016
3573,2166,3546,2040
3574,2184,3546,2040
3575,2184,3285,1893
3576,2181,3084,1893
3577,2268,3084,1830
3578,2268,2925,1764
3579,2499,2925,1764
3580,2499,2946,1833
3581,2469,2670,1833
3582,2481,2670,1728
3583,2481,2319,1605
3584,2403,2319,1605
3585,2403,1983,1494
3586,2601,2013,1494
3587,2628,2013,1542
3588,2628,1920,1578
3589,2880,1863,1578
3590,2880,1863,1569
3591,2589,1365,1569
3592,2415,1365,1488
3593,2415,900,1482
3594,2454,681,1482
3595,2454,681,1419
3596,2709,825,1419
3597,2556,825,1428
3598,2556,552,1449
3599,2829,774,1449
3600,2829,774,1362
3601,2757,522,1362
3602,2487,522,1317
3603,2487,-117,1299
3604,2556,-408,1299
3605,2484,-408,1263
3606,2484,-438,1263
3607,2292,-438,1209
3608,2292,-525,1128
3609,2424,-540,1128
3610,2553,-540,1128
3611,2553,-603,1128
3612,2613,-603,1194
3613,2613,-561,1224
3614,2820,-285,1224
3615,2862,-285,1254
3616,2862,-213,1218
3617,2868,-213,1218
3618,2868,-444,1209
3619,2835,-585,1209
3620,2877,-585,1287
3621,2877,-507,1407
3622,3000,-507,1407
3623,3000,-240,1437
3624,3108,-27,1437
3625,3162,-27,1458
3626,3162,-57,1455
3627,3075,-57,1455
3628,3075,-147,1479
3629,3039,-198,1479
3630,3015,-198,1377
3631,3015,-180,1485
3632,2868,-180,1485
3633,2868,-9,1449
3634,2916,129,1449
3635,2781,129,1428
3636,2781,264,1458
3637,2844,492,1458
3638,2844,492,1482
3639,3069,729,1482
3640,3171,729,1542
3641,3171,786,1635
3642,3066,777,1635
3643,3066,777,1623
3644,3090,993,1623
3645,3006,993,1680
3646,3006,1107,1785
3647,3033,1227,1785
3648,3033,1227,1815
3649,2895,1233,1815
3650,2901,1233,1830
3651,2901,1458,1845
3652,2724,1551,1845
3653,2868,1551,1929
3654,2868,1728,1929
3655,2937,1728,2031
3656,2937,1896,1941
3657,2718,1959,1941
3658,2628,1959,1890
3659,2628,2049,1890
3660,2454,2049,1863
3661,2454,2079,1926
3662,2490,2271,1926
3663,2784,2271,1920
3664,2784,2664,2094
3665,2562,2664,2094
3666,2562,2712,2094
3667,2466,2769,2094
3668,2214,2769,1929
3669,2214,2688,1920
3670,2121,2688,1920
3671,2121,2919,2010
3672,2415,3309,2010
3673,2442,3309,2121
3674,2442,3513,2091
3675,2253,3486,2091
3676,2253,3486,2010
3677,1917,3510,2010
3678,1680,3510,1941
3679,1680,3480,1971
3680,1509,3603,1971
3681,1509,3603,2061
3682,1707,3969,2061
3683,1368,3969,1941
3684,1368,3987,1899
3685,1179,3888,1899
3686,1110,3888,1833
3687,1110,3801,1833
3688,975,3801,1884
3689,975,3948,1995
3690,1095,4176,1995
3691,1125,4176,1965
3692,1125,4398,1965
3693,1116,4398,1965
3694,1116,4527,2034
3695,1116,4527,2034
3696,1338,4527,2034
3697,1338,4545,2130
3698,1338,4545,2130
3699,1338,4563,2154
3700,1476,4611,2154
3701,1434,4611,1989
3702,1434,4626,1956
3703,1386,4560,1956
3704,1386,4560,1890
3705,1296,4194,1890
3706,1059,4194,1815
3707,1059,4086,1788
3708,936,4002,1788
3709,936,4002,1674
3710,684,3843,1674
3711,489,3843,1659
3712,489,3939,1542
3713,390,3807,1542
3714,390,3807,1527
3715,393,3711,1527
3716,438,3711,1503
3717,438,3627,1458
3718,477,3642,1458
3719,375,3642,1473
3720,375,3750,1473
3721,363,3750,1353
3722,363,3759,1374
3723,345,3690,1374
3724,216,3690,1389
3725,216,3639,1389
3726,267,3639,1479
3727,267,3702,1524
3728,192,3819,1524
3729,117,3819,1479
3730,117,3963,1512
3731,93,3963,1512
3732,93,3906,1479
3733,-57,3789,1479
3734,-66,3789,1488
3735,-66,3687,1479
3736,-72,3687,1479
3737,-72,3717,1494
3738,-51,3744,1494
3739,63,3744,1452
3740,63,3741,1458
3741,138,3741,1458
3742,138,3735,1482
3743,147,3699,1482
3744,132,3699,1503
3745,132,3759,1443
3746,159,3780,1443
3747,159,3780,1488
3748,147,3759,1488
3749,243,3759,1488
3750,243,3732,1494
3751,231,3777,1494
3752,231,3777,1443
3753,246,3759,1443
3754,228,3759,1527
3755,228,3786,1488
3756,183,3729,1488
3757,183,3729,1509
3758,168,3768,1509
3759,207,3768,1413
3760,207,3807,1488
3761,213,3882,1488
3762,219,3882,1464
3763,219,3846,1464
3764,246,3846,1509
3765,246,3801,1497
3766,213,3801,1497
3767,261,3801,1464
3768,261,3813,1464
3769,288,3813,1503
3770,288,3765,1434
3771,339,3786,1434
3772,339,3786,1473
3773,339,3717,1413
3774,345,3717,1413
3775,345,3807,1413
3776,330,3831,1413
3777,318,3831,1458
3778,318,3804,1422
3779,318,3804,1422
3780,318,3780,1383
3781,318,3786,1383
3782,261,3786,1434
3783,261,3843,1392
3784,267,3852,1392
3785,267,3852,1377
3786,282,3846,1377
3787,270,3846,1362
3788,270,3783,1338
3789,306,3765,1338
3790,306,3765,1368
3791,288,3792,1368
3792,336,3792,1389
3793,336,3783,1344
3794,339,3777,1344
3795,339,3777,1398
3796,357,3783,1398
3797,351,3783,1374
3798,351,3792,1428
3799,336,3879,1428
3800,369,3879,1389
3801,369,3765,1389
3802,324,3765,1413
3803,324,3729,1353
3804,285,3759,1353
3805,264,3759,1467
3806,264,3792,1467
3807,270,3792,1398
3808,270,3819,1398
3809,321,3858,1398
3810,348,3858,1353
3811,348,3801,1443
3812,345,3801,1443
3813,345,3795,1392
3814,324,3816,1392
3815,333,3816,1398
3816,333,3774,1398
3817,330,3774,1398
3818,330,3747,1353
3819,363,3783,1353
3820,369,3783,1413
3821,369,3798,1443
3822,351,3798,1443
3823,351,3831,1353
3824,390,3825,1353
3825,363,3825,1377
3826,363,3801,1392
3827,318,3801,1392
3828,318,3810,1458
3829,336,3870,1458
3830,312,3870,1458
3831,312,3861,1449
3832,354,3858,1449
3833,354,3858,1419
3834,306,3825,1419
3835,276,3825,1434
3836,276,3828,1359
3837,270,3783,1359
3838,270,3783,1452
3839,219,3744,1452
3840,234,3744,1434
3841,234,3750,1404
3842,264,3783,1404
3843,264,3783,1413
3844,312,3792,1413
3845,324,3792,1452
3846,324,3792,1404
3847,294,3750,1404
3848,294,3750,1407
3849,279,3768,1407
3850,315,3768,1419
3851,315,3768,1374
3852,315,3777,1374
3853,315,3777,1347
3854,315,3810,1347
3855,285,3810,1437
3856,285,3816,1392
3857,270,3825,1392
3858,285,3825,1419
3859,285,3765,1419
3860,315,3765,1377
3861,315,3774,1398
3862,318,3768,1398
3863,303,3768,1377
3864,303,3807,1389
3865,318,3807,1389
3866,318,3798,1362
3867,288,3756,1362
3868,300,3756,1368
3869,300,3747,1368
3870,312,3747,1368
3871,312,3792,1353
3872,318,3804,1353
3873,363,3804,1338
3874,363,3807,1368
3875,345,3807,1368
3876,345,3798,1338
3877,357,3810,1338
3878,312,3810,1308
3879,312,3783,1383
3880,300,3843,1383
3881,300,3843,1323
3882,312,3807,1323
3883,300,3807,1329
3884,300,3768,1377
3885,372,3807,1377
3886,372,3807,1383
3887,321,3804,1383
3888,312,3804,1353
3889,312,3786,1332
3890,321,3813,1332
3891,321,3813,1368
3892,300,3858,1368
3893,345,3858,1398
3894,345,3834,1404
3895,330,3792,1404
3896,354,3792,1488
3897,354,3885,1488
3898,426,3885,1452
3899,426,3900,1467
3900,579,3930,1467
3901,741,3930,1473
3902,741,3876,1533
3903,813,3876,1533
3904,813,3861,1635
3905,840,3963,1635
3906,957,3963,1572
3907,957,3942,1620
3908,1062,3942,1620
3909,1062,3909,1668
3910,1125,3870,1668
3911,1248,3870,1653
3912,1248,3939,1608
3913,1302,3939,1608
3914,1302,3948,1638
3915,1368,4002,1638
3916,1395,4002,1605
3917,1395,4035,1668
3918,1518,3969,1668
3919,1518,3969,1683
3920,1485,3930,1683
3921,1572,3930,1680
3922,1572,3912,1644
3923,1695,4029,1644
3924,1695,4029,1650
3925,1878,4083,1650
3926,1971,4083,1653
3927,1971,4098,1695
3928,2037,4089,1695
3929,2037,4089,1749
3930,2154,4113,1749
3931,2232,4113,1710
3932,2232,4044,1908
3933,2454,4191,1908
3934,2454,4191,1941
3935,2193,4395,1941
3936,2172,4395,1920
3937,2172,4194,1878
3938,2316,4041,1878
3939,2190,4041,1809
3940,2190,3708,1809
3941,2259,3708,1818
3942,2259,3510,1779
3943,2352,3354,1779
3944,2499,3354,1800
3945,2499,3303,1800
3946,2589,3303,1824
3947,2589,3204,1770
3948,2682,3030,1770
3949,2781,3030,1713
3950,2781,2901,1704
3951,2781,2901,1704
3952,2781,2640,1629
3953,2832,2361,1629
3954,3108,2361,1593
3955,3108,2415,1608
3956,3489,2415,1608
3957,3489,2544,1698
3958,3420,2187,1698
3959,3501,2187,1548
3960,3501,1965,1557
3961,3522,1965,1557
3962,3522,2043,1557
3963,3258,1635,1557
3964,3285,1635,1518
3965,3285,1416,1419
3966,3078,1314,1419
3967,3078,1314,1314
3968,2697,780,1314
3969,2463,780,1293
3970,2463,588,1161
3971,1818,204,1161
3972,1818,204,1083
3973,1863,75,1083
3974,1860,75,1101
3975,1860,-129,1179
3976,1977,-174,1179
3977,1977,-174,1137
3978,2250,-147,1137
3979,2538,-147,1227
3980,2538,-75,1269
3981,2490,-216,1269
3982,2532,-216,1314
3983,2532,-228,1314
3984,2691,-228,1239
3985,2691,-213,1389
3986,2931,-210,1389
3987,3135,-210,1323
3988,3135,-186,1323
3989,3291,-186,1434
3990,3291,-153,1437
3991,3345,-300,1437
3992,3414,-300,1419
3993,3414,-336,1443
3994,3579,-336,1443
3995,3579,-315,1533
3996,3630,-273,1533
3997,3531,-273,1569
3998,3531,-300,1533
3999,3363,-300,1533
4000,3363,-387,1560
4001,3330,-468,1560
4002,3231,-468,1524
4003,3231,-495,1530
4004,3204,-408,1530
4005,3204,-408,1398
4006,2946,-414,1398
4007,2661,-414,1263
4008,2661,-492,1254
4009,2502,-384,1254
4010,2502,-384,1308
4011,2523,-252,1308
4012,2577,-252,1269
4013,2577,15,1377
4014,2544,132,1377
4015,2544,132,1362
4016,2400,309,1362
4017,2262,309,1299
4018,2262,372,1266
4019,2181,342,1266
4020,2526,342,1383
4021,2526,840,1383
4022,2610,840,1524
4023,2610,1206,1674
4024,2631,1299,1674
4025,2640,1299,1713
4026,2640,1635,1713
4027,3072,1635,1818
4028,3072,1902,1926
4029,3267,1854,1926
4030,3102,1854,1974
4031,3102,2070,1995
4032,3198,2070,1995
4033,3198,2337,1986
4034,3345,2577,1986
4035,3078,2577,1959
4036,3078,2406,2064
4037,2904,2406,2064
4038,2904,2259,1884
4039,2664,2244,1884
4040,2649,2244,1941
4041,2649,2574,2094
4042,2715,2574,2094
4043,2715,2889,2181
4044,2775,3180,2181
4045,2610,3180,2181
4046,2610,3177,2055
4047,2334,3003,2055
4048,2334,3003,1971
4049,2610,3402,1971
4050,2511,3402,2256
4051,2511,3690,2229
4052,2505,3819,2229
4053,2505,3819,2262
4054,2316,3732,2262
4055,2136,3732,2169
4056,2136,3621,2031
4057,1977,3492,2031
4058,1977,3492,2064
4059,2166,3816,2064
4060,1941,3816,2214
4061,1941,3864,2136
4062,1869,3828,2136
4063,1731,3828,2064
4064,1731,3762,2064
4065,1692,3762,1989
4066,1692,3690,2019
4067,1671,3684,2019
4068,1608,3684,1986
4069,1608,3675,1986
4070,1467,3675,1890
4071,1467,3741,1854
4072,1464,3702,1854
4073,1422,3702,1725
4074,1422,3636,1785
4075,1338,3636,1785
4076,1338,3540,1785
4077,1194,3621,1785
4078,1125,3621,1848
4079,1125,3987,1863
4080,1179,3987,1863
4081,1179,4050,1863
4082,1245,3912,1863
4083,1269,3912,1878
4084,1269,3867,1899
4085,1206,3867,1899
4086,1206,4014,1845
4087,1095,3966,1845
4088,1008,3966,1794
4089,1008,3861,1833
4090,978,3831,1833
4091,978,3831,1839
4092,966,3735,1839
4093,909,3735,1719
4094,909,3717,1710
4095,870,3717,1710
4096,870,3717,1713
4097,780,3756,1713
4098,720,3756,1710
4099,720,3651,1650
4100,633,3624,1650
4101,633,3624,1704
4102,570,3603,1704
4103,510,3603,1620
4104,510,3615,1623
4105,486,3621,1623
4106,483,3621,1620
4107,483,3657,1620
4108,534,3657,1695
4109,534,3666,1653
4110,486,3711,1653
4111,405,3711,1674
4112,405,3645,1587
4113,384,3645,1587
4114,384,3633,1539
4115,402,3603,1539
4116,288,3603,1635
4117,288,3663,1674
4118,333,3663,1674
4119,333,3717,1572
4120,267,3687,1572
4121,372,3687,1608
4122,372,3585,1572
4123,315,3585,1572
4124,315,3546,1584
4125,384,3651,1584
4126,333,3651,1620
4127,333,3753,1659
4128,393,3828,1659
4129,393,3828,1629
4130,372,3735,1629
4131,363,3735,1599
4132,363,3648,1620
4133,405,3627,1620
4134,405,3627,1638
4135,399,3636,1638
4136,366,3636,1614
4137,366,3747,1620
4138,456,3807,1620
4139,456,3807,1554
4140,468,3714,1554
4141,456,3714,1593
4142,456,3747,1608
4143,426,3738,1608
4144,420,3738,1542
4145,420,3690,1542
4146,474,3690,1605
4147,474,3711,1593
4148,456,3753,1593
4149,486,3753,1674
4150,486,3705,1674
4151,486,3705,1587
4152,486,3723,1659
4153,465,3657,1659
4154,507,3657,1635
4155,507,3708,1605
4156,489,3708,1605
4157,489,3786,1614
4158,504,3801,1614
4159,438,3801,1599
4160,438,3717,1653
4161,450,3717,1653
4162,450,3711,1614
4163,426,3705,1614
4164,456,3705,1569
4165,456,3693,1572
4166,426,3693,1572
4167,426,3717,1578
4168,435,3783,1578
4169,417,3783,1527
4170,417,3705,1599
4171,405,3636,1599
4172,405,3636,1563
4173,423,3594,1563
4174,435,3594,1548
4175,435,3675,1524
4176,477,3702,1524
4177,477,3702,1482
4178,459,3693,1482
4179,444,3693,1497
4180,444,3711,1494
4181,465,3699,1494
4182,465,3699,1578
4183,483,3717,1578
4184,468,3717,1497
4185,468,3711,1467
4186,453,3678,1467
4187,468,3678,1464
4188,468,3693,1464
4189,456,3693,1428
4190,456,3735,1518
4191,474,3687,1518
4192,423,3687,1494
4193,423,3711,1518
4194,450,3711,1518
4195,450,3708,1509
4196,423,3687,1509
4197,402,3687,1494
4198,402,3690,1497
4199,441,3690,1497
4200,441,3726,1533
4201,474,3774,1533
4202,477,3774,1578
4203,477,3762,1518
4204,399,3762,1518
4205,399,3705,1533
4206,426,3732,1533
4207,501,3732,1554
4208,501,3750,1548
4209,501,3747,1548
4210,501,3747,1578
4211,507,3684,1578
4212,441,3684,1572
4213,441,3690,1548
4214,402,3708,1548
4215,402,3708,1539
4216,351,3702,1539
4217,438,3702,1572
4218,438,3723,1548
4219,465,3789,1548
4220,468,3789,1557
4221,468,3777,1557
4222,459,3777,1539
4223,459,3729,1554
4224,456,3738,1554
4225,441,3738,1539
4226,441,3702,1539
4227,423,3702,1539
4228,423,3717,1479
4229,453,3723,1479
4230,408,3723,1533
4231,408,3741,1518
4232,414,3741,1518
4233,414,3723,1542
4234,453,3717,1542
4235,399,3717,1524
4236,399,3678,1497
4237,438,3678,1497
4238,438,3675,1482
4239,483,3759,1482
4240,456,3759,1569
4241,456,3768,1524
4242,453,3774,1524
4243,453,3774,1479
4244,444,3729,1479
4245,435,3729,1497
4246,435,3744,1503
4247,426,3717,1503
4248,426,3717,1497
4249,444,3723,1497
4250,432,3723,1533
4251,432,3762,1452
4252,426,3690,1452
4253,426,3690,1533
4254,375,3642,1533
4255,456,3642,1437
4256,456,3675,1458
4257,465,3693,1458
4258,483,3693,1509
4259,483,3786,1509
4260,444,3786,1479
4261,444,3750,1524
4262,513,3726,1524
4263,468,3726,1539
4264,468,3666,1539
4265,483,3666,1584
4266,483,3810,1533
4267,564,3885,1533
4268,612,3885,1638
4269,612,3861,1605
4270,762,3861,1605
4271,762,3750,1695
4272,849,3846,1695
4273,936,3846,1713
4274,936,3846,1734
4275,1026,3846,1734
4276,1026,3834,1755
4277,1053,3879,1755
4278,1248,3879,1824
4279,1248,3918,1854
4280,1332,3918,1854
4281,1332,3879,1824
4282,1398,3888,1824
4283,1347,3888,1833
4284,1347,3810,1803
4285,1398,3783,1803
4286,1398,3783,1890
4287,1458,3810,1890
4288,1620,3810,1773
4289,1620,3840,1815
4290,1815,3987,1815
4291,1815,3987,1830
4292,2043,4035,1830
4293,2148,4035,1854
4294,2148,4059,1854
4295,2130,3993,1854
4296,2130,3993,1884
4297,2004,3999,1884
4298,1866,3999,1848
4299,1866,3891,1944
4300,1809,3807,1944
4301,1671,3807,1971
4302,1671,3654,1971
4303,1644,3654,2001
4304,1644,3606,2055
4305,1734,3459,2055
4306,1818,3459,2076
4307,1818,3447,2076
4308,2052,3447,2079
4309,2052,3357,2094
4310,2178,3324,2094
4311,2274,3324,2160
4312,2274,3321,2115
4313,2328,3321,2115
4314,2328,3117,2136
4315,2520,3012,2136
4316,2535,3012,2136
4317,2535,2946,2115
4318,2955,2946,2115
4319,2955,3045,2115
4320,2811,2775,2115
4321,2946,2775,2106
4322,2946,2676,2121
4323,2985,2676,2121
4324,2985,2577,2055
4325,3120,2565,2055
4326,3345,2565,2046
4327,3345,2565,2055
4328,3276,2268,2055
4329,3276,2268,1956
4330,3111,1866,1956
4331,2913,1866,1863
4332,2913,1719,1830
4333,2601,1446,1830
4334,2601,1446,1695
4335,2556,1083,1695
4336,2211,1083,1650
4337,2211,765,1518
4338,1920,498,1518
4339,1920,498,1377
4340,1713,246,1377
4341,1986,246,1377
4342,1986,372,1368
4343,1887,180,1368
4344,1956,180,1377
4345,1956,18,1377
4346,2328,18,1428
4347,2328,117,1518
4348,2400,114,1518
4349,2655,114,1605
4350,2655,111,1644
4351,2724,111,1644
4352,2724,72,1665
4353,2757,51,1665
4354,2661,51,1728
4355,2661,-75,1764
4356,2709,-75,1764
4357,2709,-42,1713
4358,2760,12,1713
4359,2868,12,1725
4360,2868,6,1788
4361,2964,111,1788
4362,2964,111,1815
4363,3027,210,1815
4364,3039,210,1803
4365,3039,216,1800
4366,3162,327,1800
4367,3162,327,1839
4368,3126,369,1839
4369,3054,369,1800
4370,3054,396,1698
4371,2949,438,1698
4372,2949,438,1719
4373,2859,414,1719
4374,3060,414,1743
4375,3060,552,1794
4376,3039,852,1794
4377,3183,852,1914
4378,3183,1020,1914
4379,3087,1020,1845
4380,3087,897,1929
4381,2967,753,1929
4382,3096,753,1878
4383,3096,921,1989
4384,3036,921,1989
4385,3036,1122,1929
4386,2916,1218,1929
4387,2829,1218,1875
4388,2829,1257,1935
4389,2781,1257,1935
4390,2781,1263,2106
4391,2931,1353,2106
4392,3045,1353,2121
4393,3045,1605,2130
4394,2916,1605,2130
4395,2916,1785,2145
4396,2907,1965,2145
4397,2985,1965,2109
4398,2985,1914,2166
4399,2829,1959,2166
4400,2829,1959,2094
4401,3003,2001,2094
4402,2769,2001,2166
4403,2769,2169,2085
4404,2673,2319,2085
4405,2673,2319,2019
4406,2505,2421,2019
4407,2364,2421,1974
4408,2364,2286,2001
4409,2490,2337,2001
4410,2508,2337,2016
4411,2508,2463,2016
4412,2454,2463,2085
4413,2454,2775,2001
4414,2244,2940,2001
4415,2283,2940,1971
4416,2283,2907,1905
4417,2160,2907,1905
4418,2160,2883,1905
4419,2286,3030,1905
4420,2172,3030,1950
4421,2172,3330,1890
4422,2103,3330,1890
4423,2103,3459,1794
4424,2052,3393,1794
4425,2214,3393,1758
4426,2214,3546,1875
4427,2148,3546,1875
4428,2148,3501,1854
4429,2160,3723,1854
4430,1956,3723,1830
4431,1956,3912,1770
4432,1746,3870,1770
4433,1746,3870,1764
4434,1611,3651,1764
4435,1404,3651,1728
4436,1404,3537,1713
4437,1398,3570,1713
4438,1398,3570,1704
4439,1287,3624,1704
4440,1191,3624,1635
4441,1191,3852,1548
4442,1194,3831,1548
4443,1194,3831,1599
4444,1269,3843,1599
4445,1455,3843,1572
4446,1455,3846,1719
4447,1572,3915,1719
4448,1455,3915,1800
4449,1455,4251,1800
4450,1368,4251,1719
4451,1368,4401,1638
4452,1299,4125,1638
4453,1182,4125,1713
4454,1182,3828,1713
4455,1035,3828,1665
4456,1035,3666,1614
4457,990,3717,1614
4458,846,3717,1719
4459,846,3867,1719
4460,864,3867,1683
4461,864,3963,1665
4462,855,3834,1665
4463,795,3834,1665
4464,795,3723,1638
4465,714,3723,1638
4466,714,3627,1578
4467,693,3627,1578
4468,693,3627,1542
4469,693,3759,1584
4470,639,3759,1584
4471,639,3852,1539
4472,657,3777,1539
4473,675,3777,1512
4474,675,3798,1497
4475,657,3798,1497
4476,657,3702,1518
4477,630,3837,1518
4478,609,3837,1518
4479,609,3897,1518
4480,558,3900,1518
4481,558,3900,1428
4482,519,3759,1428
4483,423,3759,1467
4484,423,3696,1422
4485,444,3708,1422
4486,444,3708,1443
4487,408,3726,1443
4488,369,3726,1383
4489,369,3807,1338
4490,441,3813,1338
4491,441,3813,1428
4492,384,3732,1428
4493,420,3732,1368
4494,420,3693,1338
4495,375,3765,1338
4496,468,3765,1347
4497,468,3744,1347
4498,474,3744,1314
4499,474,3705,1338
4500,450,3774,1338
4501,501,3774,1338
4502,501,3801,1314
4503,372,3801,1314
4504,372,3741,1251
4505,426,3732,1251
4506,357,3732,1299
4507,357,3753,1323
4508,459,3753,1323
4509,459,3780,1293
4510,459,3816,1293
4511,426,3816,1293
4512,426,3816,1257
4513,369,3816,1257
4514,369,3801,1344
4515,453,3843,1344
4516,444,3843,1374
4517,444,3816,1392
4518,486,3834,1392
4519,486,3834,1383
4520,519,3849,1383
4521,522,3849,1407
4522,522,3912,1503
4523,570,3903,1503
4524,570,3903,1452
4525,576,3891,1452
4526,552,3891,1497
4527,552,3948,1548
4528,513,3966,1548
4529,513,3966,1467
4530,525,3921,1467
4531,465,3921,1494
4532,465,3867,1434
4533,474,3777,1434
4534,435,3777,1533
4535,435,3813,1533
4536,435,3813,1503
4537,435,3885,1542
4538,450,3846,1542
4539,441,3846,1494
4540,441,3744,1539
4541,501,3744,1539
4542,501,3774,1518
4543,492,3750,1518
4544,543,3750,1497
4545,543,3762,1557
4546,519,3762,1557
4547,519,3732,1539
4548,489,3741,1539
4549,492,3741,1593
4550,492,3702,1584
4551,468,3747,1584
4552,468,3747,1653
4553,453,3699,1653
4554,408,3699,1629
4555,408,3750,1635
4556,420,3663,1635
4557,420,3663,1680
4558,402,3678,1680
4559,369,3678,1653
4560,369,3651,1587
4561,366,3690,1587
4562,363,3690,1704
4563,363,3678,1704
4564,357,3678,1614
4565,357,3642,1563
4566,417,3546,1563
4567,432,3546,1608
4568,432,3492,1608
4569,474,3492,1608
4570,474,3510,1497
4571,465,3540,1497
4572,507,3540,1473
4573,507,3477,1473
4574,513,3477,1437
4575,513,3387,1404
4576,486,3321,1404
4577,477,3321,1479
4578,477,3462,1452
4579,399,3462,1452
4580,399,3690,1413
4581,408,3783,1413
4582,381,3783,1494
4583,381,3885,1479
4584,369,3885,1479
4585,369,3867,1434
4586,375,3795,1434
4587,336,3795,1338
4588,336,3648,1329
4589,348,3504,1329
4590,348,3504,1257
4591,387,3354,1257
4592,333,3354,1293
4593,333,3285,1266
4594,315,3411,1266
4595,315,3411,1266
4596,270,3408,1266
4597,237,3408,1248
4598,237,3471,1302
4599,234,3579,1302
4600,234,3579,1272
4601,300,3711,1272
4602,297,3711,1299
4603,297,3828,1353
4604,300,3915,1353
4605,336,3915,1374
4606,336,4011,1374
4607,372,4011,1314
4608,372,4200,1377
4609,477,4218,1377
4610,522,4218,1452
4611,522,4152,1452
4612,573,4152,1479
4613,573,4224,1482
4614,603,4272,1482
4615,606,4272,1518
4616,606,4170,1488
4617,597,4170,1488
4618,597,4059,1482
4619,570,3861,1482
4620,510,3861,1437
4621,510,3768,1449
4622,417,3768,1449
4623,417,3609,1398
4624,384,3555,1398
4625,441,3555,1323
4626,441,3570,1266
4627,435,3642,1266
4628,435,3642,1257
4629,405,3678,1257
4630,420,3678,1188
4631,420,3717,1251
4632,357,3801,1251
4633,357,3801,1278
4634,288,3957,1278
4635,192,3957,1257
4636,192,4002,1272
4637,159,3960,1272
4638,159,3960,1167
4639,228,3909,1167
4640,237,3909,1248
4641,237,3894,1233
4642,264,3918,1233
4643,330,3918,1293
4644,330,3933,1293
4645,339,3933,1329
4646,339,3888,1317
4647,375,3795,1317
4648,384,3795,1344
4649,384,3816,1344
4650,324,3816,1347
4651,324,3774,1329
4652,315,3840,1329
4653,255,3840,1344
4654,255,3891,1359
4655,231,3891,1359
4656,231,3939,1368
4657,231,3861,1368
4658,195,3861,1317
4659,195,3942,1323
4660,285,3942,1323
4661,285,4050,1353
4662,375,3987,1353
4663,510,3987,1398
4664,510,3993,1389
4665,612,3966,1389
4666,612,3966,1434
4667,747,4011,1434
4668,1053,4011,1554
4669,1053,4194,1542
4670,1161,4050,1542
4671,1161,4050,1665
4672,1209,3876,1665
4673,1185,3876,1653
4674,1185,3795,1638
4675,1230,3840,1638
4676,1230,3840,1689
4677,1206,3954,1689
4678,1440,3954,1683
4679,1440,4146,1683
4680,1794,4245,1683
4681,1776,4245,1773
4682,1776,4110,1773
4683,1890,4110,1809
4684,1890,4050,1680
4685,2010,4020,1680
4686,2097,4020,1878
4687,2097,4065,1863
4688,2343,4065,1863
4689,2343,4317,2001
4690,2490,4458,2001
4691,2586,4458,1830
4692,2586,4503,1971
4693,2553,4503,1971
4694,2553,4284,2010
4695,2430,4110,2010
4696,2208,4110,1878
4697,2208,4020,1833
4698,2259,4020,1833
4699,2259,4005,1845
4700,2301,3834,1845
4701,2346,3834,1890
4702,2346,3606,1863
4703,2115,3252,1863
4704,2115,3252,1890
4705,2349,3384,1890
4706,2352,3384,1926
4707,2352,3402,1884
4708,2265,3168,1884
4709,2265,3168,1830
4710,2451,2970,1830
4711,2247,2970,1749
4712,2247,2505,1803
4713,2466,2265,1803
4714,2466,2265,1758
4715,2907,2550,1758
4716,2727,2550,1875
4717,2727,2334,1845
4718,2997,2145,1845
4719,2775,2145,1740
4720,2775,1689,1740
4721,2757,1689,1710
4722,2757,1488,1689
4723,2637,1083,1689
4724,2751,1083,1512
4725,2751,852,1512
4726,2607,852,1473
4727,2607,753,1668
4728,2586,735,1668
4729,2448,735,1539
4730,2448,438,1458
4731,2250,438,1458
4732,2250,-66,1530
4733,2385,-90,1530
4734,2781,-90,1464
4735,2781,-6,1575
4736,2622,-6,1575
4737,2622,-195,1464
4738,2724,-324,1464
4739,2346,-324,1518
4740,2346,-480,1509
4741,2334,-480,1509
4742,2334,-594,1533
4743,2421,-696,1533
4744,2301,-696,1605
4745,2301,-771,1509
4746,2568,-570,1509
4747,2568,-570,1560
4748,2817,-390,1560
4749,2895,-390,1575
4750,2895,-450,1650
4751,2970,-477,1650
4752,2970,-477,1638
4753,2898,-555,1638
4754,2952,-555,1653
4755,2952,-480,1650
4756,2970,-315,1650
4757,3054,-315,1725
4758,3054,-234,1725
4759,3096,-234,1680
4760,3096,-255,1629
4761,3015,-333,1629
4762,2964,-333,1515
4763,2964,-261,1515
4764,2799,-261,1518
4765,2799,-291,1398
4766,2775,-303,1398
4767,2865,-303,1455
4768,2865,-66,1533
4769,3087,-66,1533
4770,3087,282,1725
4771,3066,432,1725
4772,2937,432,1755
4773,2937,528,1659
4774,2577,528,1659
4775,2577,453,1539
4776,2364,345,1539
4777,2619,345,1578
4778,2619,729,1725
4779,2502,1032,1725
4780,2502,1032,1668
4781,2334,1191,1668
4782,2352,1191,1605
4783,2352,1443,1785
4784,2559,1506,1785
4785,2559,1506,1920
4786,2880,1659,1920
4787,2904,1659,2016
4788,2904,2127,1986
4789,2715,2154,1986
4790,2715,2154,1860
4791,2586,2196,1860
4792,3018,2196,1935
4793,3018,2475,2226
4794,3126,2592,2226
4795,3354,2592,2277
4796,3354,3117,2277
4797,3039,3117,2280
4798,3039,3093,2205
4799,2799,2895,2205
4800,2691,2895,2250
4801,2691,2754,2250
4802,2712,2754,2316
4803,2712,2862,2214
4804,2580,3099,2214
4805,2313,3099,2271
4806,2313,3207,2184
4807,2037,3207,2184
4808,2037,3150,2124
4809,1746,2985,2124
4810,1815,2985,2136
4811,1815,3168,2220
4812,2025,3168,2220
4813,2025,3657,2196
4814,1836,3900,2196
4815,1716,3900,2235
4816,1716,3876,2196
4817,1434,3876,2196
4818,1434,3837,2145
4819,1371,3768,2145
4820,1299,3768,2094
4821,1299,3660,2109
4822,1293,3693,2109
4823,1293,3693,2130
4824,1155,3858,2130
4825,1191,3858,2094
4826,1191,4119,2136
4827,1347,4302,2136
4828,1347,4302,2094
4829,1401,4173,2094
4830,1338,4173,2181
4831,1338,4017,1986
4832,1305,4050,1986
4833,1305,4050,2034
4834,1263,4011,2034
4835,1329,4011,1908
4836,1329,4035,1905
4837,1284,3945,1905
4838,1287,3945,1959
4839,1287,3846,1959
4840,1200,3846,1974
4841,1200,3957,1824
4842,1143,3987,1824
4843,1053,3987,1785
4844,1053,3864,1794
4845,855,3864,1794
4846,855,3699,1713
4847,888,3603,1713
4848,720,3603,1770
4849,720,3744,1749
4850,726,3744,1749
4851,726,3837,1728
4852,633,3804,1728
4853,570,3804,1770
4854,570,3690,1635
4855,501,3690,1635
4856,501,3576,1713
4857,453,3606,1713
4858,375,3606,1638
4859,375,3750,1614
4860,387,3738,1614
4861,387,3738,1698
4862,351,3660,1698
4863,357,3660,1614
4864,357,3585,1644
4865,246,3588,1644
4866,246,3588,1629
4867,285,3636,1629
4868,282,3636,1614
4869,282,3660,1614
4870,261,3699,1614
4871,261,3699,1518
4872,282,3642,1518
4873,279,3642,1542
4874,279,3561,1605
4875,207,3642,1605
4876,201,3642,1605
4877,201,3675,1605
4878,210,3675,1599
4879,210,3744,1539
4880,246,3660,1539
4881,228,3660,1605
4882,228,3642,1605
4883,270,3642,1578
4884,270,3642,1563
4885,324,3654,1563
4886,336,3654,1539
4887,336,3687,1512
4888,336,3687,1512
4889,336,3660,1548
4890,372,3660,1548
4891,420,3660,1569
4892,420,3705,1608
4893,402,3705,1608
4894,402,3738,1623
4895,450,3750,1623
4896,459,3750,1557
4897,459,3723,1587
4898,456,3723,1587
4899,456,3726,1542
4900,456,3729,1542
4901,441,3729,1569
4902,441,3789,1572
4903,486,3786,1572
4904,486,3786,1599
4905,444,3768,1599
4906,468,3768,1614
4907,468,3735,1599
4908,399,3759,1599
4909,399,3759,1512
4910,399,3774,1512
4911,363,3774,1584
4912,363,3762,1620
4913,423,3768,1620
4914,423,3768,1557
4915,402,3717,1557
4916,414,3717,1572
4917,414,3702,1629
4918,459,3780,1629
4919,390,3780,1557
4920,390,3789,1557
4921,363,3789,1635
4922,363,3738,1593
4923,339,3717,1593
4924,297,3717,1572
4925,297,3666,1572
4926,312,3666,1572
4927,312,3702,1578
4928,375,3681,1578
4929,339,3681,1518
4930,339,3741,1635
4931,267,3741,1635
4932,267,3789,1614
4933,201,3804,1614
4934,231,3804,1584
4935,231,3693,1584
4936,255,3693,1584
4937,255,3636,1584
4938,390,3666,1584
4939,474,3666,1542
4940,474,3753,1554
4941,465,3756,1554
4942,465,3756,1497
4943,552,3804,1497
4944,477,3804,1533
4945,477,3765,1449
4946,459,3711,1449
4947,459,3711,1497
4948,408,3678,1497
4949,357,3678,1512
4950,357,3711,1437
4951,336,3753,1437
4952,363,3753,1518
4953,363,3723,1518
4954,366,3723,1488
4955,366,3741,1482
4956,363,3795,1482
4957,384,3795,1518
4958,384,3753,1518
4959,417,3753,1518
4960,417,3726,1497
4961,423,3711,1497
4962,414,3711,1497
4963,414,3735,1518
4964,438,3735,1518
4965,438,3765,1548
4966,408,3762,1548
4967,408,3762,1548
4968,408,3753,1509
4969,423,3753,1509
4970,423,3702,1503
4971,408,3693,1503
4972,390,3693,1539
4973,390,3765,1572
4974,381,3765,1572
4975,381,3762,1569
4976,363,3756,1569
4977,381,3756,1542
4978,381,3747,1614
4979,297,3711,1614
4980,297,3711,1572
4981,330,3657,1572
4982,336,3657,1578
4983,336,3717,1563
4984,306,3729,1563
4985,306,3729,1548
4986,348,3717,1548
4987,330,3717,1599
4988,330,3702,1587
4989,336,3696,1587
4990,336,3696,1569
4991,282,3666,1569
4992,312,3666,1593
4993,312,3690,1533
4994,324,3711,1533
4995,324,3711,1494
4996,339,3702,1494
4997,312,3702,1512
4998,312,3708,1584
4999,333,3732,1584
5000,303,3732,1482
5001,303,3693,1482
5002,402,3693,1473
5003,402,3726,1503
5004,381,3717,1503
5005,408,3717,1557
5006,408,3711,1512
5007,357,3711,1512
5008,357,3717,1563
5009,375,3696,1563
5010,348,3696,1587
5011,348,3714,1578
5012,354,3714,1578
5013,354,3738,1542
5014,369,3768,1542
5015,366,3768,1563
5016,366,3798,1563
5017,345,3798,1563
5018,345,3681,1563
5019,366,3711,1563
5020,375,3711,1542
5021,375,3699,1584
5022,351,3777,1584
5023,351,3777,1554
5024,387,3726,1554
5025,381,3726,1584
5026,381,3726,1599
5027,339,3762,1599
5028,339,3762,1608
5029,366,3753,1608
5030,345,3753,1563
5031,345,3753,1599
5032,372,3774,1599
5033,387,3774,1518
5034,387,3813,1518
5035,381,3813,1542
5036,381,3735,1599
5037,324,3741,1599
5038,333,3741,1524
5039,333,3741,1524
5040,369,3741,1527
5041,369,3762,1578
5042,402,3684,1578
5043,339,3684,1599
5044,339,3738,1548
5045,366,3738,1548
5046,366,3762,1572
5047,345,3732,1572
5048,297,3732,1569
5049,297,3651,1503
5050,312,3651,1503
5051,312,3663,1524
5052,354,3663,1524
5053,438,3663,1599
5054,438,3729,1557
5055,519,3864,1557
5056,519,3864,1548
5057,546,3900,1548
5058,648,3900,1635
5059,648,3774,1740
5060,717,3789,1740
5061,717,3789,1779
5062,954,4023,1779
5063,1095,4023,1800
5064,1095,3993,1974
5065,1335,3993,1974
5066,1374,3993,2100
5067,1374,4089,2100
5068,1620,4089,2085
5069,1620,4323,2145
5070,1587,4065,2145
5071,1731,4065,2010
5072,1731,3957,2010
5073,1827,3957,2079
5074,1827,3906,2091
5075,1896,3867,2091
5076,2097,3867,2070
5077,2097,3987,1986
5078,2223,3987,1986
5079,2223,4050,2085
5080,2262,3993,2085
5081,2190,3993,2106
5082,2190,3936,2040
5083,2181,3936,2040
5084,2181,3819,2004
5085,2292,3849,2004
5086,2277,3849,2016
5087,2277,3786,2046
5088,2379,3756,2046
5089,2379,3756,2025
5090,2505,3696,2025
5091,2538,3696,2031
5092,2538,3582,2001
5093,2637,3546,2001
5094,2637,3546,2025
5095,2730,3408,2025
5096,2784,3408,1920
5097,2784,3276,1839
5098,2790,3216,1839
5099,2913,3216,1785
5100,2913,3180,1785
5101,3051,3180,1914
5102,3051,3249,1944
5103,3123,2997,1944
5104,2946,2997,1860
5105,2946,2688,1860
5106,2574,2688,1764
5107,2574,2184,1614
5108,2730,2193,1614
5109,3105,2193,1635
5110,3105,2052,1680
5111,3462,2052,1680
5112,3462,1779,1518
5113,3141,1254,1518
5114,2829,1254,1428
5115,2829,768,1212
5116,2349,768,1212
5117,2349,459,1092
5118,2124,309,1092
5119,1914,309,1092
5120,1914,54,1071
5121,1854,54,1071
5122,1854,-153,1113
5123,2058,-180,1113
5124,2091,-180,1062
5125,2091,-288,1218
5126,2352,-153,1218
5127,2352,-153,1173
5128,2472,-255,1173
5129,2604,-255,1314
5130,2604,-318,1317
5131,2934,-294,1317
5132,2934,-294,1377
5133,2997,-441,1377
5134,3084,-441,1383
5135,3084,-522,1473
5136,3228,-549,1473
5137,3228,-549,1539
5138,3084,-603,1539
5139,3105,-603,1509
5140,3105,-714,1482
5141,3177,-687,1482
5142,3090,-687,1494
5143,3090,-705,1494
5144,3087,-705,1584
5145,3087,-696,1572
5146,3054,-759,1572
5147,3093,-759,1578
5148,3093,-636,1578
5149,3072,-636,1578
5150,3072,-609,1620
5151,3177,-444,1620
5152,3198,-444,1548
5153,3198,-366,1548
5154,3144,-366,1548
5155,3144,-324,1590
5156,3078,-432,1590
5157,3225,-432,1569
5158,3225,-351,1569
5159,3249,-351,1569
5160,3249,-120,1620
5161,3231,-141,1620
5162,3159,-141,1659
5163,3159,-84,1683
5164,3177,-63,1683
5165,3177,-63,1653
5166,2955,-177,1653
5167,2742,-177,1674
5168,2742,-87,1635
5169,2661,87,1635
5170,2661,87,1740
5171,2778,246,1740
5172,2859,246,1839
5173,2859,384,1845
5174,2796,408,1845
5175,2796,408,1863
5176,2850,651,1863
5177,2913,651,1929
5178,2913,1005,2079
5179,3075,1215,2079
5180,2901,1215,2040
5181,2901,1191,2040
5182,2712,1191,2109
5183,2712,1152,2091
5184,2646,1377,2091
5185,2691,1377,2025
5186,2691,1692,2025
5187,2727,1692,2121
5188,2727,1845,2166
5189,2727,1887,2166
5190,2763,1887,2175
5191,2763,1947,2091
5192,2877,1947,2091
5193,2877,2055,2121
5194,3090,2424,2121
5195,3285,2424,2199
5196,3285,2604,2121
5197,3093,2604,2121
5198,3093,2523,2070
5199,2895,2418,2070
5200,2811,2418,1950
5201,2811,2433,2046
5202,2904,2604,2046
5203,2904,2604,2025
5204,2832,2760,2025
5205,2622,2760,1965
5206,2622,2724,1920
5207,2601,2841,1920
5208,2601,2841,1941
5209,2379,2874,1941
5210,2487,2874,2010
5211,2487,3048,2100
5212,2412,3297,2100
5213,2412,3297,1974
5214,2349,3480,1974
5215,2103,3480,1986
5216,2103,3462,1899
5217,2163,3447,1899
5218,2223,3447,2010
5219,2223,3435,2010
5220,2124,3435,2034
5221,2124,3513,1944
5222,1998,3588,1944
5223,1899,3588,1860
5224,1899,3636,1830
5225,1746,3636,1830
5226,1746,3474,1764
5227,1716,3348,1764
5228,1638,3348,1803
5229,1638,3345,1818
5230,1401,3345,1818
5231,1401,3570,1770
5232,1299,3714,1770
5233,1269,3714,1710
5234,1269,3747,1755
5235,1179,3747,1755
5236,1179,3606,1719
5237,1125,3639,1719
5238,1077,3639,1764
5239,1077,3642,1863
5240,1038,3930,1863
5241,1038,3930,1794
5242,1041,4137,1794
5243,1146,4137,1845
5244,1146,4197,1845
5245,1125,4146,1845
5246,1125,4146,1815
5247,1095,3990,1815
5248,1041,3990,1809
5249,1041,3897,1803
5250,1104,3987,1803
5251,1023,3987,1788
5252,1023,3954,1788
5253,1011,3954,1749
5254,1011,3900,1809
5255,978,3819,1809
5256,873,3819,1794
5257,873,3774,1770
5258,819,3774,1770
5259,819,3759,1749
5260,681,3774,1749
5261,645,3774,1734
5262,645,3816,1704
5263,525,3816,1704
5264,525,3765,1653
5265,501,3759,1653
5266,489,3759,1587
5267,489,3741,1635
5268,417,3741,1635
5269,417,3708,1623
5270,351,3690,1623
5271,324,3690,1587
5272,324,3696,1599
5273,249,3660,1599
5274,249,3660,1584
5275,270,3708,1584
5276,270,3708,1509
5277,270,3705,1524
5278,282,3663,1524
5279,282,3663,1599
5280,267,3762,1599
5281,252,3762,1557
5282,252,3765,1518
5283,318,3744,1518
5284,318,3744,1494
5285,300,3687,1494
5286,294,3687,1497
5287,294,3678,1494
5288,285,3693,1494
5289,249,3693,1458
5290,249,3717,1458
5291,282,3717,1497
5292,282,3711,1479
5293,255,3714,1479
5294,324,3714,1443
5295,324,3729,1443
5296,330,3729,1488
5297,330,3717,1554
5298,345,3684,1554
5299,384,3684,1542
5300,384,3702,1479
5301,351,3702,1479
5302,351,3735,1497
5303,336,3744,1497
5304,306,3744,1572
5305,306,3783,1557
5306,363,3783,1557
5307,363,3762,1512
5308,285,3699,1512
5309,324,3699,1548
5310,324,3738,1557
5311,297,3753,1557
5312,297,3753,1548
5313,306,3768,1548
5314,330,3768,1563
5315,330,3738,1605
5316,333,3753,1605
5317,333,3753,1668
5318,276,3717,1668
5319,264,3717,1623
5320,264,3759,1614
5321,255,3741,1614
5322,255,3741,1569
5323,270,3744,1569
5324,351,3744,1578
5325,351,3774,1605
5326,351,3756,1605
5327,330,3756,1563
5328,330,3732,1563
5329,288,3732,1644
5330,288,3729,1554
5331,303,3717,1554
5332,270,3717,1524
5333,270,3696,1539
5334,306,3696,1539
5335,306,3714,1533
5336,237,3726,1533
5337,282,3726,1518
5338,282,3759,1494
5339,276,3759,1494
5340,276,3726,1482
5341,339,3738,1482
5342,318,3738,1512
5343,318,3744,1548
5344,330,3744,1548
5345,330,3732,1518
5346,294,3738,1518
5347,330,3738,1524
5348,330,3717,1539
5349,294,3801,1539
5350,294,3801,1503
5351,297,3735,1503
5352,297,3735,1563
5353,297,3714,1527
5354,294,3684,1527
5355,294,3684,1608
5356,300,3687,1608
5357,348,3687,1503
5358,348,3729,1554
5359,366,3750,1554
5360,270,3750,1539
5361,270,3753,1539
5362,312,3753,1548
5363,312,3741,1578
5364,330,3681,1578
5365,330,3681,1497
5366,330,3663,1497
5367,303,3663,1527
5368,303,3756,1542
5369,318,3789,1542
5370,318,3789,1563
5371,318,3759,1533
5372,324,3759,1533
5373,324,3759,1539
5374,330,3711,1539
5375,267,3711,1524
5376,267,3723,1479
5377,369,3723,1479
5378,369,3753,1542
5379,390,3792,1542
5380,399,3792,1584
5381,399,3801,1563
5382,348,3801,1563
5383,348,3717,1563
5384,285,3717,1563
5385,300,3717,1605
5386,300,3717,1587
5387,261,3732,1587
5388,261,3732,1578
5389,267,3732,1578
5390,288,3732,1512
5391,288,3786,1599
5392,366,3774,1599
5393,366,3774,1539
5394,324,3759,1539
5395,243,3759,1473
5396,243,3693,1479
5397,252,3741,1479
5398,237,3741,1509
5399,237,3750,1509
5400,237,3750,1548
5401,237,3798,1599
5402,231,3759,1599
5403,255,3759,1497
5404,255,3708,1497
5405,282,3708,1527
5406,282,3690,1464
5407,276,3693,1464
5408,279,3693,1494
5409,279,3768,1503
5410,300,3768,1503
5411,300,3756,1509
5412,315,3762,1509
5413,267,3762,1494
5414,267,3705,1527
5415,234,3705,1527
5416,234,3759,1497
5417,282,3678,1497
5418,261,3678,1503
5419,261,3774,1518
5420,282,3774,1518
5421,282,3768,1533
5422,282,3741,1533
5423,336,3741,1533
5424,336,3753,1473
5425,318,3723,1473
5426,318,3723,1539
5427,339,3780,1539
5428,345,3780,1464
5429,345,3756,1509
5430,276,3717,1509
5431,276,3717,1542
5432,282,3738,1542
5433,279,3738,1518
5434,279,3723,1539
5435,306,3774,1539
5436,306,3774,1578
5437,324,3789,1578
5438,369,3789,1563
5439,369,3765,1512
5440,324,3750,1512
5441,324,3750,1638
5442,279,3744,1638
5443,231,3744,1509
5444,231,3750,1512
5445,219,3759,1512
5446,234,3759,1464
5447,234,3753,1464
5448,285,3753,1527
5449,285,3753,1539
5450,279,3711,1539
5451,282,3711,1554
5452,282,3708,1554
5453,282,3708,1512
5454,282,3735,1539
5455,252,3723,1539
5456,297,3723,1512
5457,297,3738,1542
5458,261,3738,1542
5459,261,3744,1527
5460,219,3807,1527
5461,231,3807,1578
5462,231,3879,1569
5463,369,3879,1569
5464,369,3807,1548
5465,426,3744,1548
5466,534,3744,1524
5467,534,3789,1542
5468,582,3891,1542
5469,582,3891,1569
5470,789,3957,1569
5471,852,3957,1683
5472,852,3810,1683
5473,918,3831,1683
5474,918,3831,1740
5475,1035,3783,1740
5476,1041,3783,1725
5477,1041,3789,1698
5478,1197,3864,1698
5479,1299,3864,1734
5480,1299,3903,1734
5481,1353,3903,1830
5482,1353,4014,1785
5483,1374,4044,1785
5484,1365,4044,1815
5485,1365,3906,1830
5486,1455,3906,1830
5487,1455,3858,1764
5488,1512,3861,1764
5489,1629,3861,1803
5490,1629,4002,1794
5491,1782,4002,1794
5492,1782,4068,1869
5493,1905,4098,1869
5494,1989,4098,1935
5495,1989,4134,1935
5496,2055,4047,1935
5497,2055,4047,1959
5498,2130,3939,1959
5499,2172,3939,1920
5500,2172,3837,1944
5501,2142,3726,1944
5502,2142,3726,1935
5503,2145,3633,1935
5504,2124,3633,1899
5505,2124,3489,1941
5506,2157,3471,1941
5507,2157,3471,2010
5508,2163,3423,2010
5509,2214,3423,2070
5510,2214,3303,2160
5511,2094,3084,2160
5512,2046,3084,2130
5513,2046,3009,2130
5514,2286,3009,2229
5515,2286,3015,2151
5516,2379,2823,2151
5517,2553,2823,2094
5518,2553,2628,2094
5519,2817,2628,2106
5520,2817,2769,2166
5521,3021,2721,2166
5522,3105,2721,2136
5523,3105,2574,2139
5524,3222,2574,2139
5525,3222,2592,2109
5526,3036,2259,2109
5527,3009,2259,1989
5528,3009,1947,1884
5529,3198,1947,1884
5530,3198,2103,1929
5531,3123,1881,1929
5532,3057,1881,1908
5533,3057,1641,1884
5534,3153,1641,1884
5535,3153,1665,1788
5536,3126,1620,1788
5537,3021,1620,1863
5538,3021,1248,1770
5539,2814,870,1770
5540,2814,870,1659
5541,2640,591,1659
5542,2229,591,1524
5543,2229,81,1398
5544,2172,-126,1398
5545,2172,-126,1323
5546,2040,-231,1323
5547,2145,-231,1248
5548,2145,-171,1218
5549,2109,-318,1218
5550,2109,-318,1254
5551,2010,-495,1254
5552,2067,-495,1314
5553,2067,-441,1443
5554,2211,-345,1443
5555,2325,-345,1503
5556,2325,-387,1503
5557,2421,-387,1563
5558,2421,-438,1629
5559,2586,-363,1629
5560,2937,-363,1695
5561,2937,-150,1695
5562,3165,-150,1800
5563,3165,-75,1974
5564,3384,-45,1974
5565,3450,-45,1965
5566,3450,-48,2001
5567,3570,-48,2001
5568,3570,-18,1986
5569,3576,-63,1986
5570,3510,-63,2019
5571,3510,-195,2040
5572,3366,-195,2040
5573,3366,-288,2031
5574,3276,-315,2031
5575,3126,-315,1929
5576,3126,-396,1986
5577,3033,-423,1986
5578,3033,-423,1911
5579,3024,-351,1911
5580,2913,-351,1875
5581,2913,-381,1860
5582,2946,-267,1860
5583,2946,-267,1845
5584,2700,-294,1845
5585,2568,-294,1725
5586,2568,-222,1644
5587,2406,-162,1644
5588,2406,-162,1665
5589,2373,6,1665
5590,2517,6,1695
5591,2517,96,1653
5592,2505,234,1653
5593,2475,234,1749
5594,2475,435,1749
5595,2610,435,1710
5596,2610,687,1845
5597,2739,1008,1845
5598,2895,1008,2019
5599,2895,1146,2019
5600,2991,1146,2145
5601,2991,1275,2166
5602,2829,1479,2166
5603,2661,1479,2169
5604,2661,1509,2046
5605,2760,1509,2046
5606,2760,1599,2205
5607,2967,1959,2205
5608,3072,1959,2196
5609,3072,1926,2004
5610,2916,1926,2004
5611,2916,1809,2010
5612,2931,1848,2010
5613,2934,1848,2055
5614,2934,2199,2205
5615,3015,2199,2205
5616,3015,2427,2160
5617,2907,2334,2160
5618,2661,2334,2106
5619,2661,2385,2100
5620,2586,2742,2100
5621,2586,2742,2154
5622,2526,2775,2154
5623,2412,2775,2139
5624,2412,2862,2055
5625,2052,2691,2055
5626,2052,2691,2004
5627,1899,2712,2004
5628,2253,2712,2025
5629,2253,3279,2250
5630,2040,3435,2250
5631,2040,3435,2214
5632,1959,3429,2214
5633,1644,3429,2061
5634,1644,3192,1989
5635,1485,2997,1989
5636,1485,2997,1890
5637,1485,3081,1890
5638,1716,3081,1956
5639,1716,3507,2010
5640,1626,3837,2010
5641,1455,3837,2046
5642,1455,3834,2046
5643,1176,3834,1950
5644,1176,3642,1848
5645,909,3456,1848
5646,1002,3456,1941
5647,1002,3615,1941
5648,1020,3615,2079
5649,1020,3939,2094
5650,990,4218,2094
5651,879,4218,2061
5652,879,4368,2100
5653,846,4368,2100
5654,846,4242,2139
5655,903,4215,2139
5656,909,4215,2247
5657,909,4221,2094
5658,969,4221,2094
5659,969,4197,2076
5660,897,4143,2076
5661,882,4143,2001
5662,882,4149,2091
5663,957,4149,2091
5664,957,4014,2049
5665,906,3903,2049
5666,804,3903,2004
5667,804,3831,1989
5668,699,3846,1989
5669,699,3846,1926
5670,663,3828,1926
5671,579,3828,1908
5672,579,3792,1875
5673,426,3798,1875
5674,426,3798,1815
5675,423,3798,1815
5676,381,3798,1785
5677,381,3789,1668
5678,351,3801,1668
5679,351,3801,1608
5680,357,3768,1608
5681,351,3768,1695
5682,351,3711,1680
5683,294,3741,1680
5684,219,3741,1593
5685,219,3786,1593
5686,237,3786,1584
5687,237,3768,1650
5688,180,3735,1650
5689,177,3735,1599
5690,177,3741,1620
5691,99,3741,1620
5692,99,3783,1554
5693,78,3765,1554
5694,72,3765,1524
5695,72,3732,1554
5696,69,3732,1554
5697,69,3672,1629
5698,42,3684,1629
5699,9,3684,1578
5700,9,3735,1557
5701,42,3735,1557
5702,42,3741,1557
5703,36,3717,1557
5704,69,3717,1563
5705,69,3723,1593
5706,57,3711,1593
5707,57,3711,1620
5708,36,3750,1620
5709,3,3750,1587
5710,3,3654,1548
5711,0,3693,1548
5712,0,3693,1608
5713,9,3699,1608
5714,0,3699,1638
5715,0,3690,1653
5716,-15,3732,1653
5717,-15,3732,1554
5718,-12,3705,1554
5719,9,3705,1620
5720,9,3696,1554
5721,39,3696,1554
5722,48,3696,1659
5723,48,3705,1659
5724,48,3705,1638
5725,48,3744,1584
5726,108,3735,1584
5727,96,3735,1593
5728,96,3756,1593
5729,87,3756,1593
5730,87,3735,1557
5731,75,3780,1557
5732,93,3780,1629
5733,93,3813,1623
5734,96,3813,1623
5735,96,3810,1608
5736,114,3786,1608
5737,108,3786,1563
5738,108,3732,1608
5739,81,3732,1608
5740,81,3762,1557
5741,87,3807,1557
5742,165,3807,1563
5743,165,3810,1605
5744,132,3789,1605
5745,132,3789,1569
5746,117,3711,1569
5747,69,3711,1644
5748,69,3738,1608
5749,-57,3768,1608
5750,-57,3768,1578
5751,3,3729,1578
5752,42,3729,1512
5753,42,3708,1572
5754,75,3711,1572
5755,75,3711,1488
5756,48,3729,1488
5757,81,3729,1605
5758,81,3774,1488
5759,81,3729,1488
5760,81,3729,1509
5761,45,3717,1509
5762,99,3717,1539
5763,99,3744,1509
5764,69,3717,1509
5765,81,3717,1437
5766,81,3738,1437
5767,81,3738,1494
5768,81,3750,1467
5769,111,3777,1467
5770,114,3777,1542
5771,114,3705,1542
5772,24,3705,1533
5773,24,3714,1527
5774,30,3717,1527
5775,78,3717,1482
5776,78,3744,1524
5777,99,3744,1524
5778,99,3783,1563
5779,138,3804,1563
5780,144,3804,1503
5781,144,3747,1578
5782,132,3747,1578
5783,132,3756,1563
5784,105,3738,1563
5785,99,3738,1557
5786,99,3747,1569
5787,117,3747,1569
5788,117,3723,1554
5789,132,3732,1554
5790,96,3732,1533
5791,96,3762,1542
5792,117,3744,1542
5793,117,3744,1554
5794,108,3786,1554
5795,123,3786,1539
5796,123,3798,1539
5797,105,3738,1539
5798,105,3738,1587
5799,132,3741,1587
5800,81,3741,1569
5801,81,3801,1554
5802,117,3792,1554
5803,117,3792,1578
5804,36,3774,1578
5805,42,3774,1584
5806,42,3750,1578
5807,105,3744,1578
5808,108,3744,1578
5809,108,3723,1578
5810,90,3723,1599
5811,90,3798,1542
5812,60,3807,1542
5813,87,3807,1605
5814,87,3783,1605
5815,99,3783,1539
5816,99,3711,1539
5817,78,3660,1539
5818,9,3660,1554
5819,9,3705,1548
5820,12,3705,1548
5821,12,3717,1557
5822,39,3738,1557
5823,57,3738,1527
5824,57,3756,1518
5825,90,3756,1518
5826,90,3774,1509
5827,60,3801,1509
5828,36,3801,1542
5829,36,3774,1554
5830,48,3774,1554
5831,48,3744,1533
5832,99,3753,1533
5833,90,3753,1503
5834,90,3846,1503
5835,87,3861,1503
5836,87,3861,1554
5837,81,3819,1554
5838,81,3819,1509
5839,81,3768,1533
5840,108,3735,1533
5841,108,3735,1518
5842,123,3774,1518
5843,147,3774,1503
5844,147,3783,1512
5845,126,3753,1512
5846,126,3753,1557
5847,129,3738,1557
5848,132,3738,1614
5849,132,3729,1584
5850,81,3693,1584
5851,81,3693,1548
5852,60,3702,1548
5853,75,3702,1518
5854,75,3753,1518
5855,60,3714,1518
5856,117,3714,1542
5857,117,3747,1542
5858,156,3747,1473
5859,156,3708,1497
5860,93,3714,1497
5861,87,3714,1512
5862,87,3714,1512
5863,54,3714,1452
5864,54,3789,1479
5865,105,3810,1479
5866,111,3810,1524
5867,111,3777,1557
5868,57,3777,1557
5869,57,3783,1569
5870,57,3789,1569
5871,123,3789,1497
5872,123,3777,1473
5873,63,3777,1473
5874,63,3723,1479
5875,63,3735,1479
5876,123,3735,1533
5877,123,3765,1503
5878,114,3765,1503
5879,114,3780,1449
5880,48,3726,1449
5881,114,3726,1473
5882,114,3711,1479
5883,186,3738,1479
5884,186,3738,1488
5885,165,3774,1488
5886,162,3774,1458
5887,162,3741,1467
5888,216,3768,1467
5889,216,3768,1494
5890,306,3798,1494
5891,306,3798,1614
5892,306,3828,1608
5893,390,3915,1608
5894,390,3915,1644
5895,507,4104,1644
5896,717,4104,1680
5897,717,4116,1794
5898,897,4014,1794
5899,975,4014,1839
5900,975,4047,1839
5901,1002,4047,1845
5902,1002,4035,1878
5903,1173,4167,1878
5904,1263,4167,1839
5905,1263,4149,1839
5906,1437,4149,1869
5907,1437,4170,1839
5908,1503,4194,1839
5909,1641,4194,1893
5910,1641,4305,1878
5911,1638,4305,1878
5912,1638,4311,1941
5913,1605,4428,1941
5914,1539,4428,1890
5915,1539,4392,1860
5916,1542,4392,1860
5917,1542,4311,1800
5918,1569,4278,1800
5919,1794,4278,1788
5920,1794,4227,1830
5921,1989,4227,1830
5922,1989,4158,1839
5923,1992,4191,1839
5924,2055,4191,1875
5925,2055,4068,1803
5926,2040,3918,1803
5927,2040,3918,1845
5928,2127,3843,1845
5929,2232,3843,1770
5930,2232,3855,1785
5931,2229,3711,1785
5932,2229,3711,1860
5933,2277,3531,1860
5934,2262,3531,1779
5935,2262,3396,1869
5936,2424,3294,1869
5937,2424,3294,1845
5938,2532,3138,1845
5939,2502,3138,1878
5940,2502,2910,1944
5941,2709,2970,1944
5942,2388,2970,1944
5943,2388,2595,1944
5944,2394,2595,1956
5945,2394,2451,1863
5946,2316,2181,1863
5947,2415,2181,1833
5948,2415,2040,1815
5949,2544,2040,1815
5950,2544,1773,1755
5951,2850,1677,1755
5952,2907,1677,1674
5953,2907,1398,1644
5954,2763,1398,1644
5955,2763,1110,1488
5956,2538,810,1488
5957,2364,810,1404
5958,2364,645,1317
5959,2337,645,1317
5960,2337,537,1302
5961,2382,414,1302
5962,2268,414,1272
5963,2268,93,1221
5964,2211,93,1221
5965,2211,36,1212
5966,2016,-189,1212
5967,2106,-189,1212
5968,2106,-180,1209
5969,2415,36,1209
5970,2415,36,1377
5971,2745,-6,1377
5972,2964,-6,1443
5973,2964,6,1518
5974,3120,33,1518
5975,3120,33,1518
5976,3195,33,1518
5977,3393,33,1524
5978,3393,84,1605
5979,3465,207,1605
5980,3465,207,1620
5981,3474,93,1620
5982,3570,93,1698
5983,3570,75,1719
5984,3576,42,1719
5985,3618,42,1728
5986,3618,15,1728
5987,3438,15,1764
5988,3438,-36,1674
5989,3282,-24,1674
5990,3171,-24,1755
5991,3171,-18,1725
5992,3261,-18,1725
5993,3261,42,1770
5994,3345,66,1770
5995,3393,66,1764
5996,3393,87,1689
5997,3291,87,1689
5998,3291,30,1644
5999,3033,27,1644
6000,2700,27,1593
6001,2700,-6,1515
6002,2571,-6,1515
6003,2571,60,1527
6004,2646,129,1527
6005,2475,129,1569
6006,2475,129,1554
6007,2373,342,1554
6008,2373,342,1458
6009,2415,828,1458
6010,2436,828,1434
6011,2436,879,1605
6012,2781,942,1605
6013,2781,942,1650
6014,2802,978,1650
6015,2619,978,1608
6016,2619,1020,1623
6017,2646,1326,1623
6018,2658,1326,1653
6019,2658,1575,1653
6020,2433,1575,1854
6021,2433,1563,1743
6022,2337,1590,1743
6023,2001,1590,1803
6024,2001,1713,1803
6025,2493,1713,1989
6026,2493,2352,2061
6027,2520,2685,2061
6028,2517,2685,2190
6029,2517,2754,2166
6030,2295,2754,2166
6031,2295,2628,2085
6032,2562,3018,2085
6033,2601,3018,2106
6034,2601,3153,2286
6035,2676,3153,2286
6036,2676,3204,2130
6037,2577,3300,2130
6038,2373,3300,2160
6039,2373,3399,2055
6040,2502,3384,2055
6041,2502,3384,2049
6042,2205,3309,2049
6043,2457,3309,2130
6044,2457,3672,2247
6045,2298,3882,2247
6046,2298,3882,2190
6047,2250,3828,2190
6048,1998,3828,2034
6049,1998,3549,1950
6050,1764,3360,1950
6051,1611,3360,1929
6052,1611,3273,1929
6053,1545,3273,2016
6054,1545,3384,2031
6055,1350,3708,2031
6056,1314,3708,1980
6057,1314,3759,1980
6058,1161,3759,1980
6059,1161,3762,2034
6060,1044,3693,2034
6061,987,3693,2040
6062,987,3738,2076
6063,1110,3738,2076
6064,1110,4137,2094
6065,1140,4245,2094
6066,1092,4245,2109
6067,1092,4188,2100
6068,1053,4188,2100
6069,1053,4149,2079
6070,1077,4083,2079
6071,1122,4083,2145
6072,1122,4110,2079
6073,1080,4092,2079
6074,1080,4092,2049
6075,1059,3945,2049
6076,1026,3945,1908
6077,1026,3876,2001
6078,1011,3855,2001
6079,1011,3855,1926
6080,957,3855,1926
6081,888,3855,1920
6082,888,3831,1869
6083,786,3795,1869
6084,786,3795,1815
6085,750,3717,1815
6086,711,3717,1728
6087,711,3696,1770
6088,609,3744,1770
6089,609,3744,1800
6090,504,3735,1800
6091,471,3735,1689
6092,471,3714,1623
6093,417,3729,1623
6094,405,3729,1659
6095,405,3681,1659
6096,363,3681,1689
6097,363,3717,1755
6098,321,3651,1755
6099,321,3651,1680
6100,321,3600,1680
6101,249,3600,1833
6102,249,3681,1728
6103,177,3717,1728
6104,123,3717,1749
6105,123,3708,1719
6106,99,3708,1719
6107,99,3636,1734
6108,39,3561,1734
6109,63,3561,1665
6110,63,3594,1659
6111,99,3594,1659
6112,99,3621,1605
6113,150,3609,1605
6114,105,3609,1569
6115,105,3579,1644
6116,126,3579,1644
6117,126,3615,1665
6118,165,3660,1665
6119,174,3660,1653
6120,174,3705,1620
6121,228,3705,1620
6122,228,3705,1578
6123,246,3666,1578
6124,246,3666,1512
6125,246,3675,1527
6126,201,3684,1527
6127,201,3684,1488
6128,174,3672,1488
6129,177,3672,1488
6130,177,3711,1524
6131,150,3678,1524
6132,150,3678,1557
6133,117,3642,1557
6134,156,3642,1620
6135,156,3699,1587
6136,186,3702,1587
6137,234,3702,1569
6138,234,3687,1569
6139,225,3687,1668
6140,225,3789,1683
6141,237,3780,1683
6142,252,3780,1695
6143,252,3783,1695
6144,255,3783,1755
6145,255,3783,1683
6146,225,3747,1683
6147,192,3747,1713
6148,192,3774,1725
6149,210,3774,1725
6150,210,3735,1719
6151,141,3702,1719
6152,180,3702,1719
6153,180,3663,1710
6154,132,3663,1710
6155,132,3693,1674
6156,150,3696,1674
6157,198,3696,1719
6158,198,3747,1653
6159,177,3747,1653
6160,177,3678,1644
6161,192,3726,1644
6162,165,3726,1593
6163,165,3768,1680
6164,174,3759,1680
6165,174,3759,1605
6166,168,3765,1605
6167,147,3765,1680
6168,147,3705,1614
6169,123,3747,1614
6170,123,3747,1650
6171,144,3774,1650
6172,156,3774,1620
6173,156,3711,1593
6174,147,3660,1593
6175,147,3660,1605
6176,141,3666,1605
6177,168,3666,1572
6178,168,3678,1539
6179,129,3696,1539
6180,177,3696,1548
6181,177,3729,1548
6182,162,3729,1533
6183,162,3768,1584
6184,180,3741,1584
6185,117,3741,1539
6186,117,3702,1584
6187,162,3702,1584
6188,162,3762,1593
6189,168,3750,1593
6190,177,3750,1605
6191,177,3807,1599
6192,156,3807,1599
6193,156,3768,1605
6194,195,3747,1605
6195,180,3747,1587
6196,180,3744,1584
6197,150,3744,1584
6198,150,3726,1524
6199,156,3675,1524
6200,198,3675,1557
6201,198,3690,1563
6202,201,3738,1563
6203,201,3738,1539
6204,138,3729,1539
6205,111,3729,1542
6206,111,3690,1524
6207,105,3645,1524
6208,105,3645,1599
6209,96,3663,1599
6210,138,3663,1512
6211,138,3747,1587
6212,81,3744,1587
6213,81,3744,1569
6214,99,3753,1569
6215,105,3753,1593
6216,105,3768,1578
6217,162,3735,1578
6218,144,3735,1608
6219,144,3759,1608
6220,165,3759,1599
6221,165,3726,1605
6222,126,3792,1605
6223,162,3792,1608
6224,162,3777,1608
6225,141,3777,1608
6226,141,3759,1665
6227,201,3741,1665
6228,117,3741,1629
6229,117,3750,1644
6230,132,3750,1644
6231,132,3735,1728
6232,87,3696,1728
6233,81,3696,1638
6234,81,3675,1674
6235,123,3675,1674
6236,123,3657,1593
6237,75,3741,1593
6238,111,3741,1593
6239,111,3723,1629
6240,159,3690,1629
6241,159,3690,1629
6242,150,3696,1629
6243,186,3696,1593
6244,186,3735,1572
6245,201,3717,1572
6246,201,3717,1512
6247,192,3702,1512
6248,156,3702,1509
