sequence,AccelerometerX,AccelerometerY,AccelerometerZ
0,1041,-273,3897
1,1041,-108,4011
2,1071,-108,4011
3,1071,-426,3936
4,1209,-201,3936
5,1035,-201,3837
6,1035,-306,3900
7,1098,-195,3900
8,1098,-195,3855
9,1968,-516,3855
10,1071,-516,3822
11,1071,288,4845
12,1746,1026,4845
13,1746,1026,5871
14,1455,1620,5871
15,2055,1620,5661
16,2055,564,5460
17,2658,69,5460
18,3225,69,4713
19,3225,-1929,4713
20,3624,-1929,4458
21,3624,-3567,5952
22,2862,-3348,5952
23,1623,-3348,8191
24,1623,-2748,8191
25,1212,-2748,8191
26,1212,-1299,8191
27,1281,-705,8191
28,-51,-705,8191
29,-51,-2187,7929
30,-1182,-2187,7929
31,-1182,-3126,6588
32,-1911,-2838,6588
33,-1488,-2838,5547
34,-1488,-2079,4647
35,-1212,-2079,4647
36,-1212,-1152,4263
37,-1104,-2037,4263
38,-852,-2037,3465
39,-852,-1857,2832
40,-819,-1521,2832
41,-819,-1521,2280
42,-753,-1098,2280
43,-366,-1098,1989
44,-366,-1209,1674
45,-255,-978,1674
46,-255,-978,1665
47,-189,-855,1665
48,573,-855,1725
49,573,-1491,1527
50,786,-1689,1527
51,984,-1689,1368
52,984,-2190,1368
53,1071,-2190,1284
54,1071,-2391,1092
55,714,-2094,1092
56,348,-2094,987
57,348,-2079,1032
58,201,-2079,1032
59,201,-2283,981
60,300,-2427,981
61,12,-2427,915
62,12,-2502,696
63,-186,-2502,696
64,-186,-2904,240
65,-81,-3489,240
66,-84,-3489,210
67,-84,-3516,75
68,93,-3051,75
69,93,-3051,288
70,6,-2856,288
71,9,-2856,645
72,9,-2709,897
73,3,-2091,897
74,3,-2091,936
75,-687,-1680,936
76,-495,-1680,609
77,-495,-1377,489
78,42,-1704,489
79,42,-1704,9
80,1311,-1740,9
81,2901,-1740,-327
82,2901,-1830,-729
83,3618,-2682,-729
84,3240,-2682,-1086
85,3240,-3402,-1086
86,3024,-3402,-1356
87,3024,-3453,-1140
88,2961,-3651,-1140
89,2817,-3651,-708
90,2817,-2781,-537
91,1911,-2781,-537
92,1911,-1734,-750
93,1179,-2532,-750
94,1491,-2532,-1131
95,1491,-3108,-1575
96,1815,-3108,-1575
97,1815,-2676,-1632
98,2334,-2352,-1632
99,2346,-2352,-1701
100,2346,-1635,-2052
101,2223,-1737,-2052
102,2223,-1737,-2217
103,3564,-2655,-2217
104,4221,-2655,-2295
105,4221,-1854,-2142
106,3756,-1968,-2142
107,3756,-1968,-2157
108,3162,-2331,-2157
109,2916,-2331,-1983
110,2916,-2751,-1752
111,3402,-432,-1752
112,3402,-432,-1992
113,3333,366,-1992
114,2556,366,-2745
115,2556,-57,-3498
116,2088,-1452,-3498
117,2445,-1452,-3678
118,2445,-1824,-3678
119,2151,-1824,-3624
120,2151,-2322,-3393
121,1680,-3396,-3393
122,729,-3396,-2859
123,729,-1872,-2475
124,-300,-1872,-2475
125,-300,-999,-2028
126,111,-819,-2028
127,594,-819,-1791
128,594,-789,-2415
129,387,-789,-2415
130,387,-1278,-2661
131,552,-1278,-2661
132,1164,-1278,-2922
133,1164,-1470,-2952
134,573,-1008,-2952
135,573,-1008,-3105
136,402,-1239,-3105
137,-408,-1239,-3486
138,-408,-1224,-3564
139,-66,-2289,-3564
140,-66,-2289,-3036
141,312,-1422,-3036
142,0,-1422,-3045
143,0,-696,-3045
144,3,-546,-3045
145,-111,-546,-3423
146,-111,-336,-3423
147,-24,-336,-3858
148,-24,-606,-4650
149,-207,-138,-4650
150,15,-138,-5523
151,15,-345,-5523
152,192,-345,-6210
153,192,-882,-6783
154,282,-828,-6783
155,126,-828,-6969
156,126,-438,-7044
157,-144,-438,-7044
158,-144,-1080,-6711
159,285,-1035,-6711
160,402,-1035,-6186
161,402,-276,-5715
162,657,-276,-5715
163,657,693,-5778
164,-441,939,-5778
165,-1149,939,-6432
166,-1149,63,-6411
167,-987,129,-6411
168,-987,129,-6588
169,-393,-486,-6588
170,45,-486,-6927
171,45,-1434,-6201
172,648,-2316,-6201
173,648,-2316,-4296
174,381,-1518,-4296
175,-1578,-1518,-2721
176,-1578,-606,-1500
177,-2658,-168,-1500
178,-2100,-168,-639
179,-2100,-480,-639
180,-621,-480,-126
181,-621,-279,9
182,-66,300,9
183,-687,300,-261
184,-687,-378,-888
185,-1623,-378,-888
186,-1623,-621,-1671
187,-2214,-885,-1671
188,-1263,-885,-2985
189,-1263,-1686,-3441
190,-342,-1686,-3441
191,-342,-1623,-3426
192,-162,-918,-3426
193,-180,-918,-3468
194,-180,-813,-3468
195,-351,-618,-3468
196,-351,-618,-3492
197,-57,-54,-3492
198,105,-54,-3636
199,105,393,-4446
200,-15,129,-4446
201,-15,129,-5223
202,-594,477,-5223
203,-1014,477,-6162
204,-1014,-171,-6882
205,-936,-1020,-6882
206,-936,-1020,-7314
207,-936,-1434,-7314
208,-1044,-1434,-7248
209,-1044,-1014,-6798
210,-1446,-219,-6798
211,-1365,-219,-6261
212,-1365,261,-5976
213,-894,261,-5976
214,-894,-132,-5715
215,-645,-471,-5715
216,-1143,-471,-5292
217,-1143,-447,-4857
218,-1341,-447,-4857
219,-1341,-363,-4536
220,-1347,-483,-4536
221,-1683,-483,-4128
222,-1683,-87,-3723
223,-1458,-48,-3723
224,-1458,-48,-3351
225,-942,-357,-3351
226,-111,-357,-3000
227,-111,-588,-2703
228,459,-819,-2703
229,459,-819,-2871
230,183,-405,-2871
231,-1026,-405,-2964
232,-1026,-33,-3075
233,-1986,-261,-3075
234,-1992,-261,-3162
235,-1992,-597,-3162
236,-993,-597,-3360
237,-993,-384,-3747
238,-495,-591,-3747
239,-1410,-591,-4455
240,-1410,-345,-4455
241,-2097,-345,-5592
242,-2097,-1185,-6261
243,-747,-1143,-6261
244,549,-1143,-5940
245,549,-483,-5403
246,-447,-483,-5403
247,-447,-393,-5076
248,-2163,-333,-5076
249,-1773,-333,-4830
250,-1773,-1074,-4374
251,120,-1074,-4374
252,120,-1365,-3729
253,636,-558,-3729
254,132,-558,-2889
255,132,246,-2544
256,-927,-657,-2544
257,-927,-657,-2019
258,-1404,-324,-2019
259,-1353,-324,-1833
260,-1353,-642,-1851
261,-1503,297,-1851
262,-1302,297,-1848
263,-1302,-432,-1848
264,-1404,-432,-2322
265,-1404,-975,-2736
266,-768,-1767,-2736
267,-651,-1767,-2796
268,-651,-1014,-2217
269,141,-1014,-2217
270,141,-279,-1680
271,297,-543,-1680
272,-1062,-543,-2148
273,-1062,-1002,-2961
274,-687,-1002,-2961
275,-687,-867,-4191
276,-696,-1230,-4191
277,-1743,-1230,-5439
278,-1743,-1122,-6132
279,-2805,-567,-6132
280,-2805,-567,-6396
281,-2061,-1707,-6396
282,-1584,-1707,-6726
283,-1584,-1389,-6492
284,-1389,-1077,-6492
285,-1389,-1077,-5994
286,-1521,-885,-5994
287,-1542,-885,-5328
288,-1542,-945,-4923
289,-753,-1056,-4923
290,-381,-1056,-4740
291,-381,-1164,-4740
292,-852,-1164,-4566
293,-852,-1332,-4065
294,-1680,-1020,-4065
295,-1434,-1020,-3501
296,-1434,-1311,-3045
297,-525,-1311,-3045
298,-525,-1191,-2907
299,-696,-1032,-2907
300,-1287,-1032,-2649
301,-1287,-894,-2619
302,-1230,-894,-2619
303,-1230,-396,-2337
304,-774,-918,-2337
305,-1230,-918,-2415
306,-1230,-1239,-2634
307,-1149,-1269,-2634
308,-1149,-1269,-2679
309,-1071,-780,-2679
310,-1281,-780,-2619
311,-1281,-816,-2805
312,-840,-873,-2805
313,-840,-873,-3042
314,-540,-945,-3042
315,-978,-945,-3351
316,-978,-966,-3618
317,-996,-1095,-3618
318,-945,-1095,-3879
319,-945,-960,-3879
320,-1236,-960,-4065
321,-1236,-744,-4149
322,-1365,-849,-4149
323,-978,-849,-4329
324,-978,-810,-4632
325,-927,-810,-4632
326,-927,-711,-4866
327,-1107,-984,-4866
328,-1215,-984,-4992
329,-1215,-1311,-5157
330,-1044,-1311,-5157
331,-1044,-1242,-5043
332,-939,-972,-5043
333,-1065,-972,-4635
334,-1065,-522,-4299
335,-1488,-678,-4299
336,-1488,-678,-4239
337,-1041,-633,-4239
338,-900,-633,-4098
339,-900,-765,-4059
340,-1539,-366,-4059
341,-1539,-366,-3984
342,-1356,-909,-3984
343,-816,-909,-3999
344,-816,-1449,-3963
345,-858,-1317,-3963
346,-1071,-1317,-3732
347,-1071,-1161,-3528
348,-1299,-1161,-3528
349,-1299,-942,-3291
350,-579,-828,-3291
351,387,-828,-3237
352,387,-1011,-3336
353,57,-1011,-3336
354,57,-1062,-3522
355,-405,-816,-3522
356,-615,-816,-3648
357,-615,-951,-3798
358,-960,-582,-3798
359,-960,-582,-3468
360,-612,-843,-3468
361,-579,-843,-3318
362,-579,-489,-3327
363,-189,36,-3327
364,-189,36,-3351
365,-63,-84,-3351
366,-423,-84,-3531
367,-423,-459,-3681
368,-717,-186,-3681
369,-717,-186,-3699
370,-591,-600,-3699
371,-489,-600,-4095
372,-489,-762,-4191
373,-807,-192,-4191
374,-846,-192,-4731
375,-846,36,-4731
376,-654,36,-4716
377,-654,24,-4665
378,-429,-138,-4665
379,-396,-138,-4896
380,-396,21,-4806
381,-909,21,-4806
382,-909,237,-4800
383,-1506,-6,-4800
384,-918,-6,-4677
385,-918,186,-4662
386,120,186,-4662
387,120,618,-4782
388,780,345,-4782
389,975,345,-4737
390,975,-45,-4677
391,147,-45,-4677
392,147,390,-4530
393,-267,306,-4530
394,-33,306,-4446
395,-33,-243,-4536
396,249,12,-4536
397,249,12,-4305
398,120,87,-4305
399,-63,87,-3909
400,-63,417,-3714
401,165,183,-3714
402,165,183,-3663
403,276,-306,-3663
404,264,-306,-3723
405,264,-270,-3879
406,-291,-216,-3879
407,6,-216,-3909
408,6,-219,-3888
409,267,-219,-3888
410,267,-378,-3867
411,129,-381,-3867
412,-48,-381,-3747
413,-48,-414,-3807
414,147,-414,-3807
415,147,-351,-4098
416,486,-690,-4098
417,786,-690,-4068
418,786,-330,-3903
419,360,-303,-3903
420,360,-303,-3912
421,156,-96,-3912
422,72,-96,-4044
423,72,-426,-4209
424,-18,-648,-4209
425,-18,-648,-4626
426,198,-912,-4626
427,369,-912,-4737
428,369,-696,-4632
429,339,-453,-4632
430,-321,-453,-4560
431,-321,-876,-4560
432,-372,-876,-4686
433,-372,-1179,-4833
434,174,-1167,-4833
435,120,-1167,-4827
436,120,-900,-4605
437,210,-900,-4605
438,210,-861,-4389
439,69,-921,-4389
440,-87,-921,-4098
441,-87,-1065,-4074
442,192,-1065,-4074
443,192,-1044,-4191
444,504,-1062,-4191
445,429,-1062,-4089
446,429,-1125,-4125
447,339,-1125,-4125
448,339,-1455,-4281
449,207,-1617,-4281
450,87,-1617,-4494
451,87,-1719,-4572
452,297,-1830,-4572
453,297,-1830,-4710
454,381,-1554,-4710
455,243,-1554,-4731
456,243,-2028,-4893
457,336,-2199,-4893
458,336,-2199,-4962
459,243,-2298,-4962
460,408,-2298,-4881
461,408,-2133,-4710
462,525,-2241,-4710
463,33,-2241,-4755
464,33,-2310,-4755
465,264,-2310,-4677
466,264,-2115,-4650
467,450,-2511,-4650
468,321,-2511,-4365
469,321,-2556,-4038
470,372,-2556,-4038
471,372,-2823,-4023
472,363,-2733,-4023
473,555,-2733,-3798
474,555,-2670,-3513
475,510,-2670,-3513
476,510,-3204,-3378
477,555,-2976,-3378
478,1128,-2976,-2922
479,1128,-2301,-2202
480,450,-3075,-2202
481,450,-3075,-2379
482,123,-3450,-2379
483,417,-3450,-2304
484,417,-3021,-1902
485,726,-2685,-1902
486,726,-2685,-1260
487,1209,-2091,-1260
488,750,-2091,-498
489,750,-2634,-273
490,657,-2919,-273
491,246,-2919,-48
492,246,-2961,-48
493,390,-2961,288
494,390,-2715,516
495,915,-2637,516
496,816,-2637,711
497,816,-2493,711
498,672,-2493,963
499,672,-2409,1047
500,828,-2211,1047
501,741,-2211,1323
502,741,-2451,1398
503,840,-2451,1398
504,840,-2214,1860
505,1005,-2082,1860
506,930,-2082,1956
507,930,-2016,2079
508,849,-2016,2079
509,849,-2010,2145
510,741,-2127,2145
511,744,-2127,1950
512,744,-1236,2646
513,771,-1239,2646
514,771,-1239,2718
515,702,-1119,2718
516,354,-1119,2862
517,354,-873,2994
518,246,-822,2994
519,246,-822,3177
520,-429,-429,3177
521,-186,-429,3273
522,-186,99,3546
523,-39,411,3546
524,210,411,3660
525,210,291,3660
526,87,291,3600
527,87,522,3651
528,108,603,3651
529,-93,603,3621
530,-93,888,3624
531,-126,888,3624
532,-126,1050,3630
533,-147,1032,3630
534,45,1032,3624
535,45,1314,3681
536,114,1314,3681
537,114,1338,3756
538,177,1167,3756
539,-315,1167,3639
540,-315,1029,3444
541,-747,927,3444
542,-747,927,3099
543,-186,1416,3099
544,-273,1416,3210
545,-273,2724,3951
546,78,4302,3951
547,78,4302,4953
548,156,5559,4953
549,-108,5559,5631
550,-108,6156,5883
551,-354,5916,5883
552,249,5916,5622
553,249,5028,5622
554,519,5028,4668
555,519,3429,3459
556,570,2217,3459
557,366,2217,2982
558,366,1854,3033
559,543,1854,3033
560,543,2061,3495
561,417,2592,3495
562,129,2592,4080
563,129,2934,4509
564,24,2934,4509
565,24,3264,4809
566,129,3642,4809
567,180,3642,4968
568,180,4038,5259
569,369,4335,5259
570,369,4335,5460
571,606,4194,5460
572,441,4194,5010
573,441,3564,4353
574,300,3045,4353
575,300,3045,4092
576,-162,2679,4092
577,-24,2679,3972
578,-24,2481,3882
579,183,2103,3882
580,156,2103,3561
581,156,1506,3561
582,60,1506,3240
583,60,1002,3012
584,-141,558,3012
585,42,558,2841
586,42,240,2853
587,237,240,2853
588,237,126,2796
589,6,-465,2796
590,-39,-465,2631
591,-39,-1113,2136
592,78,-1113,2136
593,78,-1188,2091
594,300,-993,2091
595,180,-993,2121
596,180,-1350,2175
597,-135,-1398,2175
598,-135,-1398,1890
599,-675,-2577,1890
600,-591,-2577,930
601,-591,-3051,765
602,402,-2244,765
603,402,-2244,1026
604,465,-1887,1026
605,90,-1887,963
606,90,-2001,441
607,-351,-3504,441
608,60,-3504,-519
609,60,-3993,-519
610,573,-3993,-723
611,573,-3177,-609
612,396,-2259,-609
613,249,-2259,-492
614,249,-2145,-855
615,-243,-2145,-855
616,-243,-2832,-1545
617,-24,-3654,-1545
618,126,-3654,-2013
619,126,-3495,-2172
620,201,-3495,-2172
621,201,-2775,-2022
622,78,-2184,-2022
623,72,-2184,-2169
624,72,-2271,-2616
625,0,-2802,-2616
626,0,-2802,-2991
627,102,-2985,-2991
628,438,-2985,-3207
629,438,-2676,-3150
630,291,-2124,-3150
631,291,-2124,-3228
632,-117,-1692,-3228
633,-270,-1692,-3321
634,-270,-1659,-3486
635,-42,-1824,-3486
636,-42,-1824,-3579
637,270,-1500,-3579
638,54,-1500,-3819
639,54,-1455,-4038
640,195,-1323,-4038
641,234,-1323,-4200
642,234,-1236,-4200
643,-327,-1236,-4164
644,-327,-1143,-4389
645,-732,-849,-4389
646,-240,-849,-4455
647,-240,-486,-4449
648,87,-486,-4449
649,87,-111,-4650
650,-489,291,-4650
651,-717,291,-4761
652,-717,543,-4926
653,-1701,543,-4926
654,-1701,1467,-5304
655,-1632,1929,-5304
656,-579,1929,-6135
657,-579,1551,-6918
658,198,258,-6918
659,198,258,-8043
660,465,-912,-8043
661,528,-912,-8016
662,528,-843,-6942
663,-594,1038,-6942
664,-594,1038,-5970
665,-1272,1515,-5970
666,-1203,1515,-5223
667,-1203,2001,-4746
668,-1101,852,-4746
669,-1101,852,-5184
670,-666,936,-5184
671,129,936,-4731
672,129,1290,-4401
673,108,918,-4401
674,-186,918,-3984
675,-186,609,-3984
676,-942,609,-3777
677,-942,522,-3348
678,-1125,606,-3348
679,-567,606,-3111
680,-567,402,-2691
681,45,402,-2691
682,45,402,-2610
683,-15,537,-2610
684,-237,537,-2745
685,-237,432,-3303
686,-456,432,-3303
687,-456,867,-3939
688,-612,684,-3939
689,-93,684,-4335
690,-93,471,-4284
691,309,369,-4284
692,309,369,-4230
693,-312,477,-4230
694,-651,477,-4344
695,-651,543,-4320
696,-333,693,-4320
697,-333,693,-4341
698,-513,702,-4341
699,-318,702,-4542
700,-318,459,-4494
701,-183,342,-4494
702,-183,342,-4374
703,-12,528,-4374
704,-126,528,-4305
705,-126,492,-4266
706,-318,462,-4266
707,-363,462,-4149
708,-363,594,-4149
709,-465,594,-4143
710,-465,573,-3915
711,-150,492,-3915
712,-15,492,-3870
713,-15,519,-3930
714,-78,519,-3930
715,-78,507,-3960
716,-117,444,-3960
717,-267,444,-3945
718,-267,363,-3864
719,-231,363,-3864
720,-231,531,-3783
721,-150,582,-3783
722,-144,582,-3888
723,-144,132,-4134
724,-255,-216,-4134
725,-255,-216,-4275
726,-654,336,-4275
727,-669,336,-4095
728,-669,750,-3993
729,-144,915,-3993
730,-144,915,-3945
731,261,717,-3945
732,228,717,-4050
733,228,417,-4155
734,144,468,-4155
735,144,468,-4200
736,-36,465,-4200
737,-147,465,-4269
738,-147,411,-4173
739,-147,432,-4173
740,-153,432,-4224
741,-153,498,-4224
742,-30,498,-4083
743,-30,762,-3894
744,144,675,-3894
745,258,675,-3819
746,258,591,-4029
747,-273,591,-4029
748,-273,507,-3993
749,-180,444,-3993
750,87,444,-3984
751,87,393,-4113
752,-186,393,-4113
753,-186,435,-4095
754,-510,471,-4095
755,-528,471,-4095
756,-528,519,-4209
757,-174,786,-4209
758,-174,786,-4098
759,-75,819,-4098
760,-186,819,-4215
761,-186,972,-4209
762,-357,783,-4209
763,-357,783,-4320
764,-264,780,-4320
765,-174,780,-4251
766,-174,795,-4311
767,-216,987,-4311
768,-216,987,-4185
769,-429,768,-4185
770,-201,768,-4200
771,-201,831,-4173
772,-336,645,-4173
773,-252,645,-4230
774,-252,711,-4230
775,-240,711,-4113
776,-240,912,-4065
777,-69,846,-4065
778,-324,846,-4014
779,-324,690,-3975
780,-276,690,-3975
781,-276,690,-4014
782,-429,525,-4014
783,-27,525,-4095
784,-27,687,-4080
785,9,687,-4080
786,9,777,-3903
787,-6,747,-3903
788,-153,747,-3894
789,-153,663,-4029
790,-252,576,-4029
791,-252,576,-4005
792,-12,690,-4005
793,-6,690,-3948
794,-6,738,-4023
795,51,753,-4023
796,51,753,-4029
797,-78,621,-4029
798,-60,621,-3999
799,-60,573,-4098
800,-30,618,-4098
801,-57,618,-4104
802,-57,588,-4104
803,18,588,-4050
804,18,717,-4050
805,-168,744,-4050
806,-219,744,-4068
807,-219,750,-3999
808,-195,750,-3999
809,-195,609,-4050
810,-102,609,-4050
811,-117,609,-4050
812,-117,690,-4125
813,-243,690,-4125
814,-243,744,-4014
815,-291,792,-4014
816,-198,792,-3969
817,-198,648,-4014
818,-231,645,-4014
819,-231,645,-4074
820,-255,615,-4074
821,-144,615,-4164
822,-144,663,-4185
823,-375,480,-4185
824,-375,480,-4296
825,-360,549,-4296
826,-153,549,-4245
827,-153,591,-4194
828,51,702,-4194
829,69,702,-4104
830,69,798,-4104
831,-198,798,-4095
832,-198,783,-4008
833,-282,519,-4008
834,-222,519,-4113
835,-222,282,-4068
836,15,282,-4068
837,15,483,-4158
838,33,564,-4158
839,-24,564,-3990
840,-24,714,-3945
841,-195,714,-3945
842,-195,582,-4059
843,-276,531,-4059
844,-255,531,-4053
845,-255,447,-4029
846,-27,516,-4029
847,-27,516,-4059
848,-132,528,-4059
849,-276,528,-4113
850,-276,471,-4089
851,-264,579,-4089
852,-264,579,-4080
853,-174,564,-4080
854,-171,564,-4095
855,-171,462,-4113
856,-156,465,-4113
857,-147,465,-4098
858,-147,453,-4098
859,-183,453,-4083
860,-183,411,-4113
861,-252,534,-4113
862,-132,534,-4128
863,-132,591,-4038
864,15,591,-4038
865,15,588,-4068
866,-189,417,-4068
867,-264,417,-4050
868,-264,387,-4155
869,-201,387,-4155
870,-201,480,-4104
871,-180,588,-4104
872,-195,588,-4029
873,-195,627,-4029
874,-273,627,-4029
875,-273,549,-4038
876,-132,483,-4038
877,-126,483,-4083
878,-126,453,-4128
879,-207,417,-4128
880,-207,417,-4125
881,-96,459,-4125
882,-57,459,-4158
883,-57,627,-4125
884,-168,573,-4125
885,-168,573,-4125
886,-294,567,-4125
887,-204,567,-4074
888,-204,516,-4113
889,-186,543,-4113
890,-117,543,-4038
891,-117,570,-4038
892,-156,570,-4134
893,-156,597,-4128
894,-180,540,-4128
895,-117,540,-4164
896,-117,510,-4158
897,-69,510,-4158
898,-69,507,-4155
899,36,582,-4155
900,-87,582,-4125
901,-87,597,-4053
902,-213,597,-4053
903,-213,468,-4143
904,-204,528,-4143
905,-18,528,-4110
906,-18,609,-4023
907,-216,525,-4023
908,-216,525,-4005
909,-333,597,-4005
910,-105,597,-4044
911,-105,519,-4089
912,-111,453,-4089
913,-111,453,-4089
914,-135,594,-4089
915,-129,594,-4140
916,-129,534,-4164
917,-168,579,-4164
918,-252,579,-4080
919,-252,606,-4080
920,-174,606,-4074
921,-174,528,-4110
922,-189,540,-4110
923,-60,540,-4080
924,-60,525,-4080
925,-18,525,-4128
926,-18,528,-4119
927,-186,507,-4119
928,-219,507,-3963
929,-219,537,-4020
930,-219,537,-4020
931,-219,639,-4029
932,-252,519,-4029
933,-456,519,-4089
934,-456,492,-4044
935,-132,492,-4044
936,-132,621,-3939
937,-174,567,-3939
938,-201,567,-4020
939,-201,624,-3945
940,90,624,-3945
941,90,666,-4080
942,-102,540,-4080
943,-270,540,-4173
944,-270,510,-4194
945,-120,498,-4194
946,-120,498,-4164
947,-87,621,-4164
948,-24,621,-4128
949,-24,663,-4110
950,-183,462,-4110
951,-234,462,-4155
952,-234,699,-4155
953,-117,699,-4044
954,-117,555,-4149
955,-129,507,-4149
956,-195,507,-4059
957,-195,549,-4059
958,-96,549,-4050
959,-96,537,-4005
960,-189,678,-4005
961,-75,678,-4020
962,-75,564,-4008
963,0,564,-4008
964,0,606,-4008
965,-45,609,-4008
966,-51,609,-4035
967,-51,477,-4125
968,-105,477,-4125
969,-105,534,-4098
970,-63,558,-4098
971,-150,558,-4113
972,-150,534,-4110
973,-216,609,-4110
974,-216,609,-4140
975,-93,567,-4140
976,-204,567,-4050
977,-204,609,-4110
978,-132,612,-4110
979,-132,612,-4173
980,-84,609,-4173
981,-222,609,-4143
982,-222,510,-4194
983,-231,567,-4194
984,-249,567,-4143
985,-249,567,-4143
986,-312,567,-4170
987,-312,651,-4113
988,-270,567,-4113
989,-267,567,-4065
990,-267,534,-4029
991,-291,534,-4029
992,-291,594,-4065
993,-171,540,-4065
994,-171,540,-4008
995,-171,573,-4020
996,-276,573,-4020
997,-276,531,-3969
998,-321,612,-3969
999,-180,612,-3960
1000,-180,513,-3960
1001,-204,513,-3960
1002,-204,516,-4113
1003,-165,534,-4113
1004,-162,534,-4074
1005,-162,513,-4104
1006,-219,507,-4104
1007,-219,507,-4125
1008,-69,582,-4125
1009,0,582,-4110
1010,0,501,-4149
1011,-231,621,-4149
1012,-231,621,-4149
1013,-201,558,-4149
1014,-237,558,-4113
1015,-237,606,-4113
1016,-288,615,-4113
1017,-237,615,-4125
1018,-237,558,-4125
1019,-168,558,-4110
1020,-168,672,-4059
1021,-171,600,-4059
1022,-168,600,-4083
1023,-168,606,-4083
1024,-147,606,-4191
1025,-147,558,-4125
1026,-240,543,-4125
1027,-282,543,-4164
1028,-282,573,-4125
1029,-258,573,-4125
1030,-258,525,-4065
1031,-201,597,-4065
1032,-237,597,-4020
1033,-237,606,-4095
1034,-288,606,-4095
1035,-288,594,-3990
1036,-327,474,-3990
1037,-243,474,-4083
1038,-243,504,-4095
1039,-282,537,-4095
1040,-282,537,-4050
1041,-324,579,-4050
1042,-354,579,-4134
1043,-354,777,-4029
1044,-483,615,-4029
1045,-483,615,-4023
1046,-312,549,-4023
1047,-45,549,-4068
1048,-45,540,-4095
1049,-78,573,-4095
1050,-234,573,-4119
1051,-234,591,-4119
1052,-285,591,-4095
1053,-285,519,-4134
1054,-291,711,-4134
1055,-294,711,-4128
1056,-294,561,-4230
1057,-126,561,-4230
1058,-126,477,-4275
1059,-33,579,-4275
1060,-105,579,-4215
1061,-105,558,-4221
1062,-267,558,-4221
1063,-267,420,-4134
1064,-273,528,-4134
1065,-288,528,-4065
1066,-288,549,-4038
1067,-333,516,-4038
1068,-333,516,-3990
1069,-249,507,-3990
1070,-105,507,-3894
1071,-105,564,-3852
1072,-201,585,-3852
1073,-201,585,-3918
1074,-258,624,-3918
1075,-120,624,-3909
1076,-120,597,-4023
1077,-180,555,-4023
1078,-255,555,-4119
1079,-255,513,-4119
1080,-216,513,-4038
1081,-216,639,-4128
1082,-162,699,-4128
1083,-213,699,-4110
1084,-213,558,-4110
1085,-78,558,-4179
1086,-78,510,-4326
1087,-36,588,-4326
1088,27,588,-4311
1089,27,477,-4230
1090,21,477,-4230
1091,21,552,-4155
1092,-105,621,-4155
1093,-84,621,-4068
1094,-84,507,-4185
1095,-33,507,-4185
1096,-33,579,-4053
1097,-102,672,-4053
1098,-126,672,-3999
1099,-126,600,-4038
1100,-273,600,-4038
1101,-273,561,-4110
1102,-441,525,-4110
1103,-420,525,-4053
1104,-420,543,-4074
1105,-429,510,-4074
1106,-429,510,-4089
1107,-324,531,-4089
1108,-165,531,-4035
1109,-165,576,-4014
1110,-45,612,-4014
1111,-258,612,-4020
1112,-258,462,-4020
1113,-318,462,-4074
1114,-318,441,-4095
1115,-96,495,-4095
1116,138,495,-4029
1117,138,645,-3975
1118,39,645,-3975
1119,39,639,-4029
1120,-183,585,-4029
1121,-174,585,-4044
1122,-174,591,-4098
1123,-153,591,-4098
1124,-153,492,-4164
1125,69,414,-4164
1126,21,414,-4158
1127,21,549,-4104
1128,-6,597,-4104
1129,-6,597,-4089
1130,-42,555,-4089
1131,-183,555,-4128
1132,-183,528,-4080
1133,-207,564,-4080
1134,-207,564,-4059
1135,-69,558,-4059
1136,-117,558,-4044
1137,-117,561,-4020
1138,-222,642,-4020
1139,-222,642,-4005
1140,-339,513,-4005
1141,-306,513,-4029
1142,-306,585,-4020
1143,-195,570,-4020
1144,-171,570,-4050
1145,-171,582,-4050
1146,-360,582,-4059
1147,-360,585,-4038
1148,-345,693,-4038
1149,-114,693,-4068
1150,-114,663,-4068
1151,33,663,-4008
1152,33,513,-4035
1153,120,528,-4035
1154,-84,528,-4068
1155,-84,537,-4140
1156,-189,537,-4140
1157,-189,423,-4164
1158,-27,459,-4164
1159,-264,459,-4311
1160,-264,456,-4545
1161,-354,456,-4545
1162,-354,294,-4785
1163,-93,510,-4785
1164,-6,510,-4953
1165,-6,618,-5133
1166,-45,825,-5133
1167,-45,825,-5298
1168,-162,357,-5298
1169,-18,357,-5493
1170,-18,-6,-5688
1171,-525,-252,-5688
1172,-576,-252,-6045
1173,-576,117,-6045
1174,-204,117,-6054
1175,-204,465,-5955
1176,6,189,-5955
1177,291,189,-5628
1178,291,-270,-5628
1179,180,-270,-5748
1180,180,-969,-5985
1181,-99,-1044,-5985
1182,-390,-1044,-6036
1183,-390,-471,-5559
1184,-168,-471,-5559
1185,-168,99,-5154
1186,-75,-954,-5154
1187,-369,-954,-4986
1188,-369,-2031,-5127
1189,51,-2031,-5127
1190,51,-1341,-4977
1191,264,-1350,-4977
1192,63,-1350,-4701
1193,63,-1380,-4530
1194,315,-1467,-4530
1195,315,-1467,-4023
1196,-30,-2280,-4023
1197,492,-2280,-3900
1198,492,-2040,-3162
1199,603,-1677,-3162
1200,234,-1677,-2538
1201,234,-2349,-2538
1202,-135,-2349,-2313
1203,-135,-2538,-1938
1204,138,-2376,-1938
1205,189,-2376,-1497
1206,189,-2445,-1497
1207,354,-2445,-1131
1208,354,-2148,-618
1209,432,-2121,-618
1210,69,-2121,-297
1211,69,-2574,-156
1212,372,-2574,-156
1213,372,-2442,270
1214,783,-2301,270
1215,459,-2301,531
1216,459,-2412,636
1217,390,-2322,636
1218,390,-2322,942
1219,537,-2007,942
1220,495,-2007,1266
1221,495,-2118,1392
1222,183,-2238,1392
1223,183,-2238,1557
1224,333,-1734,1557
1225,123,-1734,2019
1226,123,-1224,2481
1227,-15,-1203,2481
1228,-15,-1203,2562
1229,-426,-942,2562
1230,-180,-942,2781
1231,-180,-336,3129
1232,147,-297,3129
1233,246,-297,3012
1234,246,501,3012
1235,144,501,3645
1236,144,156,3258
1237,255,156,3258
1238,399,156,3114
1239,399,414,3219
1240,801,414,3219
1241,801,651,3240
1242,699,567,3240
1243,528,567,3210
1244,528,738,3168
1245,456,738,3168
1246,456,993,3414
1247,591,1278,3414
1248,408,1278,3645
1249,408,1755,3945
1250,762,2673,3945
1251,762,2673,4386
1252,444,3204,4386
1253,36,3204,4854
1254,36,3888,5220
1255,-102,5004,5220
1256,-102,5004,6252
1257,3,5802,6252
1258,-132,5802,6909
1259,-132,6039,7044
1260,-537,5898,7044
1261,-720,5898,7200
1262,-720,5568,7200
1263,-582,5568,6900
1264,-582,4800,5931
1265,-429,3912,5931
1266,-477,3912,5124
1267,-477,3495,4719
1268,90,3495,4719
1269,90,3123,4473
1270,459,2589,4473
1271,417,2589,4095
1272,417,2223,3675
1273,936,2223,3675
1274,936,2016,3474
1275,918,1692,3474
1276,849,1692,3162
1277,849,1152,2937
1278,783,945,2937
1279,783,945,2958
1280,867,843,2958
1281,810,843,2832
1282,810,633,2445
1283,591,-174,2445
1284,591,-174,1911
1285,804,-255,1911
1286,408,-255,1911
1287,408,-384,1839
1288,-204,-591,1839
1289,-228,-591,1494
1290,-228,-1122,1494
1291,165,-1122,1143
1292,165,-1551,771
1293,237,-1866,771
1294,93,-1866,435
1295,93,-1911,24
1296,-393,-1911,24
1297,-393,-2238,-354
1298,-615,-2271,-354
1299,-462,-2271,-1014
1300,-462,-2619,-1269
1301,-234,-2619,-1269
1302,-234,-2676,-1455
1303,141,-2250,-1455
1304,555,-2250,-1782
1305,555,-2289,-2463
1306,207,-3027,-2463
1307,207,-3027,-2619
1308,141,-2907,-2619
1309,-42,-2907,-2553
1310,-42,-2082,-2985
1311,69,-2184,-2985
1312,69,-2184,-3648
1313,267,-3012,-3648
1314,-18,-3012,-3729
1315,-18,-2574,-3918
1316,-336,-1464,-3918
1317,156,-1464,-3978
1318,156,-1629,-3978
1319,558,-1629,-3999
1320,558,-1695,-4185
1321,570,-1995,-4185
1322,78,-1995,-4665
1323,78,-1824,-4665
1324,-273,-1824,-4725
1325,-273,-1593,-4917
1326,-144,-1695,-4917
1327,231,-1695,-4893
1328,231,-1752,-5238
1329,-150,-1752,-5238
1330,-150,-1743,-5217
1331,93,-1722,-5217
1332,126,-1722,-5184
1333,126,-1542,-5022
1334,-120,-1353,-5022
1335,-120,-1353,-5007
1336,-375,-1302,-5007
1337,-129,-1302,-4617
1338,-129,-1191,-4341
1339,213,-951,-4341
1340,213,-951,-4170
1341,294,-795,-4170
1342,282,-795,-3975
1343,282,-906,-4065
1344,75,-741,-4065
1345,-243,-741,-3813
1346,-243,-633,-3813
1347,-276,-633,-3708
1348,-276,-252,-3612
1349,-105,87,-3612
1350,-24,87,-3624
1351,-24,387,-3777
1352,-312,387,-3777
1353,-312,462,-4419
1354,-402,-174,-4419
1355,-300,-174,-5052
1356,-300,-798,-5754
1357,141,-798,-5754
1358,141,-165,-5763
1359,297,294,-5763
1360,591,294,-5760
1361,591,372,-5700
1362,348,312,-5700
1363,348,312,-5919
1364,-84,279,-5919
1365,51,279,-5826
1366,51,531,-5454
1367,303,621,-5454
1368,303,621,-4983
1369,300,420,-4983
1370,258,420,-4557
1371,258,324,-4284
1372,6,213,-4284
1373,-237,213,-4098
1374,-237,129,-4098
1375,-195,129,-3864
1376,-195,294,-3558
1377,6,270,-3558
1378,309,270,-3318
1379,309,213,-3195
1380,276,213,-3195
1381,276,156,-3150
1382,-168,111,-3150
1383,-282,111,-3195
1384,-282,129,-3288
1385,-225,129,-3288
1386,-225,69,-3468
1387,141,105,-3468
1388,108,105,-3609
1389,108,156,-3768
1390,-84,129,-3768
1391,-84,129,-3990
1392,-99,147,-3990
1393,138,147,-4044
1394,138,312,-4389
1395,60,231,-4389
1396,60,231,-4515
1397,-129,72,-4515
1398,-6,72,-4635
1399,-6,261,-4656
1400,264,333,-4656
1401,165,333,-4641
1402,165,306,-4641
1403,165,306,-4737
1404,165,213,-4641
1405,111,195,-4641
1406,-36,195,-4455
1407,-36,210,-4395
1408,-63,210,-4395
1409,-63,216,-4209
1410,195,231,-4209
1411,336,231,-4134
1412,336,294,-4023
1413,213,294,-4023
1414,213,171,-3843
1415,0,96,-3843
1416,-6,96,-3822
1417,-6,117,-3777
1418,60,72,-3777
1419,60,72,-3759
1420,195,300,-3759
1421,327,300,-3672
1422,327,297,-3702
1423,270,171,-3702
1424,270,171,-3945
1425,36,183,-3945
1426,72,183,-4029
1427,72,69,-4173
1428,87,117,-4173
1429,75,117,-4230
1430,75,120,-4230
1431,264,120,-4194
1432,264,192,-4236
1433,198,165,-4236
1434,165,165,-4269
1435,165,141,-4344
1436,132,141,-4344
1437,132,273,-4404
1438,78,138,-4404
1439,147,138,-4374
1440,147,168,-4215
1441,252,90,-4215
1442,252,90,-4314
1443,405,102,-4314
1444,372,102,-4200
1445,372,87,-4290
1446,351,171,-4290
1447,351,171,-4065
1448,216,162,-4065
1449,114,162,-3990
1450,114,144,-3924
1451,189,63,-3924
1452,297,63,-3963
1453,297,123,-3963
1454,339,123,-3870
1455,339,141,-3888
1456,297,114,-3888
1457,126,114,-3954
1458,126,0,-3933
1459,51,0,-3933
1460,51,51,-3984
1461,111,273,-3984
1462,195,273,-4044
1463,195,93,-4005
1464,294,93,-4005
1465,294,90,-4260
1466,240,81,-4260
1467,321,81,-4215
1468,321,111,-4209
1469,249,15,-4209
1470,249,15,-4296
1471,102,117,-4296
1472,102,117,-4344
1473,102,33,-4341
1474,213,63,-4341
1475,213,63,-4266
1476,300,105,-4266
1477,369,105,-4221
1478,369,81,-4113
1479,183,144,-4113
1480,75,144,-4035
1481,75,102,-4035
1482,87,102,-4113
1483,87,33,-4104
1484,258,42,-4104
1485,246,42,-4044
1486,246,132,-3963
1487,126,132,-3963
1488,126,102,-3969
1489,78,132,-3969
1490,171,132,-3984
1491,171,78,-4065
1492,195,78,-4065
1493,195,30,-4065
1494,267,96,-4065
1495,363,96,-4155
1496,363,75,-4095
1497,207,84,-4095
1498,207,84,-4155
1499,180,60,-4155
1500,156,60,-4098
1501,156,126,-4179
1502,222,135,-4179
1503,222,135,-4191
1504,363,132,-4191
1505,282,132,-4173
1506,282,66,-4143
1507,174,102,-4143
1508,159,102,-4251
1509,159,21,-4251
1510,213,21,-4200
1511,213,72,-4110
1512,249,111,-4110
1513,213,111,-4068
1514,213,102,-4095
1515,180,102,-4095
1516,180,153,-4059
1517,177,69,-4059
1518,222,69,-4074
1519,222,132,-4050
1520,198,132,-4050
1521,198,129,-4035
1522,270,96,-4035
1523,111,96,-4155
1524,111,18,-4050
1525,192,18,-4050
1526,192,135,-4068
1527,159,42,-4068
1528,138,42,-4080
1529,138,129,-4080
1530,27,114,-4080
1531,27,114,-4023
1532,102,120,-4023
1533,369,120,-4143
1534,369,117,-4206
1535,207,18,-4206
1536,207,18,-4158
1537,36,159,-4158
1538,-81,159,-4158
1539,-81,0,-4098
1540,156,258,-4098
1541,240,258,-4134
1542,240,126,-4134
1543,297,126,-4125
1544,297,78,-4170
1545,270,66,-4170
1546,228,66,-4083
1547,228,135,-4068
1548,15,135,-4068
1549,15,-9,-4125
1550,51,117,-4125
1551,198,117,-4083
1552,198,129,-4068
1553,240,129,-4068
1554,240,102,-4053
1555,210,66,-4053
1556,267,66,-4044
1557,267,156,-4119
1558,195,114,-4119
1559,195,114,-4053
1560,54,87,-4053
1561,144,87,-4059
1562,144,105,-4080
1563,180,90,-4080
1564,180,90,-4140
1565,279,114,-4140
1566,276,114,-4173
1567,276,111,-4098
1568,165,93,-4098
1569,147,93,-4074
1570,147,141,-4074
1571,192,141,-4053
1572,192,24,-4155
1573,201,87,-4155
1574,132,87,-4104
1575,132,96,-4098
1576,126,96,-4098
1577,126,153,-4125
1578,174,24,-4125
1579,183,24,-4104
1580,183,87,-4128
1581,270,87,-4128
1582,270,63,-4029
1583,315,102,-4029
1584,192,102,-4170
1585,192,81,-4083
1586,-57,81,-4083
1587,-57,60,-4104
1588,162,-18,-4104
1589,330,-18,-4074
1590,330,105,-4089
1591,267,117,-4089
1592,267,117,-4149
1593,183,102,-4149
1594,213,102,-4104
1595,213,84,-4119
1596,228,108,-4119
1597,228,108,-4149
1598,201,75,-4149
1599,234,75,-4089
1600,234,102,-4125
1601,144,90,-4125
1602,75,90,-4065
1603,75,69,-4065
1604,84,69,-4068
1605,84,111,-4035
1606,108,153,-4035
1607,201,153,-4059
1608,201,69,-4164
1609,159,69,-4164
1610,159,63,-4098
1611,123,84,-4098
1612,162,84,-4113
1613,162,87,-4110
1614,96,87,-4110
1615,96,69,-4068
1616,171,153,-4068
1617,225,153,-4029
1618,225,51,-4128
1619,246,120,-4128
1620,246,120,-4074
1621,222,144,-4074
1622,129,144,-4074
1623,129,123,-4128
1624,87,177,-4128
1625,87,177,-4074
1626,-42,90,-4074
1627,300,90,-4140
1628,300,69,-4125
1629,333,177,-4125
1630,0,177,-4191
1631,0,225,-4191
1632,-516,225,-4179
1633,-516,120,-4005
1634,-342,153,-4005
1635,588,153,-4095
1636,588,366,-3978
1637,414,366,-3978
1638,414,330,-4044
1639,222,240,-4044
1640,-207,240,-3990
1641,-207,216,-4134
1642,-477,216,-4134
1643,-477,387,-4080
1644,-438,429,-4080
1645,114,429,-4290
1646,114,-18,-4434
1647,-96,90,-4434
1648,-96,90,-4230
1649,-438,651,-4230
1650,-51,651,-4158
1651,-51,1017,-3870
1652,72,438,-3870
1653,72,438,-4023
1654,-174,-228,-4023
1655,-651,-228,-4605
1656,-651,69,-4419
1657,-687,588,-4419
1658,-336,588,-4215
1659,-336,621,-4215
1660,-252,621,-4113
1661,-252,480,-4149
1662,-498,621,-4149
1663,-423,621,-4098
1664,-423,411,-4365
1665,-390,411,-4365
1666,-390,114,-4239
1667,-324,795,-4239
1668,-567,795,-4038
1669,-567,549,-4125
1670,-690,303,-4125
1671,-690,303,-4191
1672,-375,390,-4191
1673,-168,390,-4173
1674,-168,483,-3999
1675,-444,738,-3999
1676,-444,738,-3768
1677,-333,171,-3768
1678,-609,171,-3813
1679,-609,327,-3822
1680,-600,480,-3822
1681,-423,480,-3963
1682,-423,-96,-3963
1683,-876,-96,-3954
1684,-876,615,-3828
1685,-702,657,-3828
1686,-1071,657,-4035
1687,-1071,30,-4149
1688,-381,30,-4149
1689,-381,549,-4446
1690,-369,462,-4446
1691,-618,462,-4455
1692,-618,105,-4671
1693,-558,105,-4671
1694,-558,414,-4380
1695,-534,453,-4380
1696,-882,453,-4281
1697,-882,-51,-4224
1698,-570,609,-4224
1699,-570,609,-3777
1700,-672,237,-3777
1701,-495,237,-3753
1702,-495,-228,-3729
1703,-558,-120,-3729
1704,-558,-120,-3567
1705,-834,486,-3567
1706,-816,486,-3543
1707,-816,741,-3312
1708,-243,-501,-3312
1709,-792,-501,-3744
1710,-792,-294,-3744
1711,-621,-294,-3729
1712,-621,342,-3687
1713,-240,810,-3687
1714,-189,810,-3501
1715,-189,315,-3609
1716,-912,315,-3609
1717,-912,-354,-4095
1718,-270,-174,-4095
1719,-489,-174,-4104
1720,-489,-3,-4323
1721,-426,-3,-4323
1722,-426,87,-4395
1723,-714,360,-4395
1724,-828,360,-4494
1725,-828,-90,-4569
1726,-288,-90,-4569
1727,-288,339,-4485
1728,-387,189,-4485
1729,-411,189,-4560
1730,-411,324,-4431
1731,-507,75,-4431
1732,-507,75,-4494
1733,-810,0,-4494
1734,-561,0,-4356
1735,-561,84,-4251
1736,-267,333,-4251
1737,-267,333,-4080
1738,-129,222,-4080
1739,-570,222,-3948
1740,-570,24,-4029
1741,-717,51,-4029
1742,-531,51,-3924
1743,-531,114,-3924
1744,-396,114,-3837
1745,-396,147,-3852
1746,-432,327,-3852
1747,-423,327,-3777
1748,-423,156,-3843
1749,-342,156,-3843
1750,-342,60,-3948
1751,-345,138,-3948
1752,-459,138,-4053
1753,-459,171,-4128
1754,-543,171,-4128
1755,-543,300,-4083
1756,-450,189,-4083
1757,-318,189,-4224
1758,-318,51,-4326
1759,-243,156,-4326
1760,-243,156,-4299
1761,-429,249,-4299
1762,-483,249,-4329
1763,-483,324,-4281
1764,-273,162,-4281
1765,-273,162,-4329
1766,-213,174,-4329
1767,-342,174,-4284
1768,-342,141,-4149
1769,-312,369,-4149
1770,-327,369,-4098
1771,-327,213,-4098
1772,-378,213,-4083
1773,-378,108,-4095
1774,-126,198,-4095
1775,-165,198,-4029
1776,-165,33,-4020
1777,-336,33,-4020
1778,-336,138,-3990
1779,-387,237,-3990
1780,-351,237,-4038
1781,-351,198,-3948
1782,-225,198,-3948
1783,-225,183,-3963
1784,-183,135,-3963
1785,-153,135,-4128
1786,-153,87,-4125
1787,-372,-30,-4125
1788,-372,-30,-4224
1789,-429,234,-4224
1790,-87,234,-4194
1791,-87,147,-4128
1792,-111,201,-4128
1793,-111,201,-4143
1794,-234,168,-4143
1795,-288,168,-4155
1796,-288,27,-4191
1797,-276,114,-4191
1798,-231,114,-4185
1799,-231,135,-4185
1800,-528,135,-4155
1801,-528,-168,-4155
1802,-600,-369,-4155
1803,-825,-369,-4293
1804,-825,-636,-4626
1805,-576,-636,-4626
1806,-576,-96,-4431
1807,24,708,-4431
1808,741,708,-4560
1809,741,447,-4710
1810,294,300,-4710
1811,294,300,-5157
1812,-426,-900,-5157
1813,-648,-900,-5664
1814,-648,-1194,-6297
1815,-474,-288,-6297
1816,-474,-288,-6021
1817,-621,-174,-6021
1818,-36,-174,-5913
1819,-36,147,-5658
1820,27,42,-5658
1821,27,42,-5553
1822,243,-891,-5553
1823,-120,-891,-5724
1824,-120,-1509,-5931
1825,-735,-1152,-5931
1826,-786,-1152,-5871
1827,-786,-1047,-5871
1828,-717,-1047,-5760
1829,-717,-1155,-5859
1830,-501,-1779,-5859
1831,-678,-1779,-5931
1832,-678,-1452,-6207
1833,-648,-1452,-6207
1834,-648,-1773,-5985
1835,726,-1443,-5985
1836,1176,-1443,-5193
1837,1176,-1026,-4110
1838,330,-1026,-4110
1839,330,-966,-3021
1840,153,-1650,-3021
1841,-171,-1650,-2499
1842,-171,-2163,-2049
1843,-135,-1938,-2049
1844,-135,-1938,-1521
1845,543,-1227,-1521
1846,945,-1227,-789
1847,945,-1254,-141
1848,327,-1800,-141
1849,327,-1800,-66
1850,6,-2289,-66
1851,648,-2289,198
1852,648,-2241,501
1853,453,-2361,501
1854,315,-2361,576
1855,315,-2622,576
1856,741,-2622,735
1857,741,-2604,963
1858,999,-2160,963
1859,1086,-2160,1437
1860,1086,-2124,1563
1861,795,-2124,1563
1862,795,-2571,1227
1863,702,-2268,1227
1864,993,-2268,1452
1865,993,-1752,1659
1866,492,-1752,1659
1867,492,-2583,1008
1868,-63,-2136,1008
1869,477,-2136,2064
1870,477,-1083,2907
1871,141,-1083,2907
1872,141,-1224,2892
1873,24,-1044,2892
1874,-402,-1044,2997
1875,-402,-804,3054
1876,-129,-399,3054
1877,-129,-399,3039
1878,363,-183,3039
1879,420,-183,3174
1880,420,-135,3159
1881,270,-129,3159
1882,282,-129,3024
1883,282,-9,3024
1884,336,-9,2907
1885,336,318,2856
1886,432,474,2856
1887,450,474,2751
1888,450,690,2658
1889,372,690,2658
1890,372,825,2871
1891,117,1158,2871
1892,-402,1158,3168
1893,-402,1497,3348
1894,-642,1497,3348
1895,-642,2556,3834
1896,303,4098,3834
1897,138,4098,5004
1898,138,6171,6939
1899,-855,7833,6939
1900,-855,7833,8191
1901,-1131,8191,8191
1902,-27,8191,8191
1903,-27,7953,7713
1904,363,6249,7713
1905,363,6249,6087
1906,402,5034,6087
1907,129,5034,5394
1908,129,4413,5073
1909,426,4032,5073
1910,546,4032,4779
1911,546,3627,4779
1912,759,3627,4617
1913,759,3294,4308
1914,867,2781,4308
1915,972,2781,3987
1916,972,2577,3987
1917,789,2577,3750
1918,789,2358,3414
1919,543,1791,3414
1920,456,1791,2811
1921,456,1053,2226
1922,795,1053,2226
1923,795,552,1824
1924,513,291,1824
1925,366,291,1584
1926,366,21,1344
1927,-39,21,1344
1928,-39,-144,1167
1929,-237,-675,1167
1930,267,-675,1017
1931,267,-1290,594
1932,105,-1689,594
1933,105,-1689,501
1934,591,-1578,501
1935,819,-1578,3
1936,819,-2472,-453
1937,303,-3210,-453
1938,114,-3210,-753
1939,114,-3396,-753
1940,240,-3396,-735
1941,240,-3735,-1020
1942,438,-3201,-1020
1943,837,-3201,-690
1944,837,-2697,-690
1945,861,-2697,-954
1946,861,-2760,-1269
1947,435,-2775,-1269
1948,264,-2775,-1341
1949,264,-2874,-1791
1950,291,-2874,-1791
1951,291,-2898,-1671
1952,573,-2673,-1671
1953,588,-2673,-1572
1954,588,-2283,-1521
1955,639,-1380,-1521
1956,639,-1380,-2253
1957,-174,-942,-2253
1958,-696,-942,-3135
1959,-696,-1725,-3798
1960,-651,-2061,-3798
1961,-651,-2061,-4113
1962,-120,-2049,-4113
1963,78,-2049,-4281
1964,78,-2007,-4329
1965,-36,-1524,-4329
1966,-234,-1524,-4455
1967,-234,-1395,-4455
1968,-552,-1395,-4617
1969,-552,-1338,-4923
1970,-375,-1137,-4923
1971,-375,-1137,-4938
1972,-375,-1320,-4938
1973,-540,-1320,-5184
1974,-540,-1254,-4977
1975,-618,-738,-4977
1976,-219,-738,-4791
1977,-219,-210,-4371
1978,-255,-210,-4371
1979,-255,-438,-4566
1980,-282,-636,-4566
1981,-615,-636,-4602
1982,-615,-432,-4665
1983,-411,-432,-4665
1984,-411,-24,-4686
1985,-117,237,-4686
1986,-162,237,-4740
1987,-162,213,-5103
1988,-861,-165,-5103
1989,-861,-165,-5472
1990,-1026,-42,-5472
1991,-600,-42,-5463
1992,-600,177,-5568
1993,-27,303,-5568
1994,-27,303,-5595
1995,-267,255,-5595
1996,-798,255,-5724
1997,-798,69,-5778
1998,-789,309,-5778
1999,-534,309,-5688
2000,-534,267,-5688
2001,-558,267,-5469
2002,-558,261,-5154
2003,-333,192,-5154
2004,-249,192,-4872
2005,-249,69,-4872
2006,-495,69,-4590
2007,-495,132,-4284
2008,-294,411,-4284
2009,-276,411,-3870
2010,-276,141,-3687
2011,-138,141,-3687
2012,-138,27,-3627
2013,-411,-90,-3627
2014,-426,-90,-3492
2015,-426,-156,-3477
2016,-318,-156,-3477
2017,-318,30,-3387
2018,-117,453,-3387
2019,-153,453,-3228
2020,-153,-27,-3327
2021,-183,-291,-3327
2022,-183,-291,-3558
2023,-327,-228,-3558
2024,-162,-228,-3642
2025,-162,-21,-3807
2026,-117,216,-3807
2027,-117,216,-3687
2028,-45,27,-3687
2029,-57,27,-3900
2030,-57,99,-4098
2031,-198,-36,-4098
2032,-198,-36,-4314
2033,-204,-66,-4314
2034,-195,-66,-4389
2035,-195,75,-4515
2036,-207,198,-4515
2037,-87,198,-4515
2038,-87,189,-4515
2039,-276,189,-4506
2040,-276,87,-4680
2041,-357,75,-4680
2042,-18,75,-4527
2043,-18,168,-4530
2044,3,168,-4530
2045,3,177,-4431
2046,-57,186,-4431
2047,-393,186,-4344
2048,-393,168,-4164
2049,-240,168,-4164
2050,-240,123,-4143
2051,-75,198,-4143
2052,-6,198,-3975
2053,-6,138,-3924
2054,-60,129,-3924
2055,-60,129,-3879
2056,-165,252,-3879
2057,-138,252,-3843
2058,-138,99,-3885
2059,-219,153,-3885
2060,-219,153,-3804
2061,-183,174,-3804
2062,-36,174,-3885
2063,-36,165,-3915
2064,-69,162,-3915
2065,-180,162,-4035
2066,-180,123,-4035
2067,-276,123,-4143
2068,-276,189,-4191
2069,-135,204,-4191
2070,6,204,-4206
2071,6,222,-4290
2072,-186,222,-4290
2073,-186,135,-4305
2074,-369,198,-4305
2075,-219,198,-4359
2076,-219,207,-4326
2077,-267,207,-4326
2078,-267,288,-4326
2079,-132,243,-4326
2080,-66,243,-4320
2081,-66,183,-4281
2082,-105,126,-4281
2083,-105,126,-4200
2084,-102,117,-4200
2085,-240,117,-4200
2086,-240,108,-4059
2087,-105,210,-4059
2088,-105,210,-4065
2089,-93,231,-4065
2090,-135,231,-3978
2091,-135,165,-3978
2092,-129,87,-3978
2093,-129,87,-4038
2094,-75,120,-4038
2095,-165,120,-4023
2096,-165,69,-3999
2097,-135,210,-3999
2098,-243,210,-4008
2099,-243,141,-4008
2100,-75,141,-3975
2101,-75,99,-4095
2102,-36,96,-4095
2103,-120,96,-4044
2104,-120,90,-4119
2105,-285,90,-4119
2106,-285,48,-4044
2107,45,258,-4044
2108,-69,258,-4164
2109,-69,234,-4098
2110,-207,234,-4098
2111,-207,99,-4080
2112,-93,165,-4080
2113,-18,165,-4128
2114,-18,177,-4194
2115,-93,150,-4194
2116,-93,150,-4230
2117,-303,99,-4230
2118,-126,99,-4143
2119,-126,240,-4134
2120,-78,210,-4134
2121,-78,210,-4149
2122,-150,264,-4149
2123,-117,264,-4083
2124,-117,120,-4158
2125,-198,129,-4158
2126,-81,129,-4104
2127,-81,135,-4104
2128,-135,135,-4143
2129,-135,141,-4038
2130,-93,159,-4038
2131,-36,159,-4059
2132,-36,201,-4059
2133,-150,201,-4119
2134,-150,192,-4089
2135,-147,150,-4089
2136,-204,150,-4158
2137,-204,147,-4125
2138,-186,147,-4125
2139,-186,162,-4089
2140,-87,168,-4089
2141,-87,168,-4074
2142,-87,159,-4083
2143,-102,159,-4083
2144,-102,243,-4098
2145,0,261,-4098
2146,-156,261,-4020
2147,-156,81,-4065
2148,-195,81,-4065
2149,-195,159,-4110
2150,15,153,-4110
2151,63,153,-4173
2152,63,177,-4104
2153,-12,213,-4104
2154,-12,213,-4119
2155,-42,177,-4119
2156,-84,177,-4149
2157,-84,138,-4194
2158,-78,90,-4194
2159,-78,90,-4113
2160,-6,219,-4113
2161,-18,219,-4149
2162,-18,270,-4059
2163,-117,216,-4059
2164,-69,216,-4095
2165,-69,129,-4095
2166,-75,129,-4143
2167,-75,207,-4158
2168,21,129,-4158
2169,141,129,-4125
2170,141,228,-4083
2171,-93,228,-4083
2172,-93,180,-4050
2173,-144,237,-4050
2174,-237,237,-4029
2175,-237,180,-4110
2176,-114,180,-4110
2177,-114,87,-4179
2178,-27,234,-4179
2179,-63,234,-4119
2180,-63,162,-4140
2181,-168,162,-4140
2182,-168,198,-4128
2183,-213,117,-4128
2184,-87,117,-4125
2185,-87,327,-4095
2186,-180,123,-4095
2187,-180,123,-4119
2188,-111,141,-4119
2189,-147,141,-4143
2190,-147,303,-4143
2191,-36,186,-4143
2192,-36,186,-4140
2193,-111,207,-4140
2194,-114,207,-4140
2195,-114,189,-4155
2196,-126,174,-4155
2197,-78,174,-4110
2198,-78,201,-4110
2199,-30,201,-4125
2200,-30,180,-4149
2201,-12,267,-4149
2202,-45,267,-4095
2203,-45,198,-4095
2204,-171,198,-4059
2205,-171,168,-4050
2206,-231,126,-4050
2207,-57,126,-4113
2208,-57,213,-4023
2209,72,213,-4023
2210,72,195,-4053
2211,-9,273,-4053
2212,-147,273,-3969
2213,-147,303,-3975
2214,51,303,-3975
2215,51,126,-4200
2216,84,129,-4200
2217,-9,129,-4158
2218,-9,177,-4185
2219,-66,315,-4185
2220,-66,315,-4173
2221,-27,330,-4173
2222,-78,330,-4155
2223,-78,270,-4179
2224,-15,201,-4179
2225,-15,201,-4185
2226,-102,153,-4185
2227,-153,153,-4140
2228,-153,111,-4266
2229,-189,240,-4266
2230,-120,240,-4119
2231,-120,273,-4119
2232,-126,273,-4080
2233,-126,171,-4119
2234,-201,252,-4119
2235,-138,252,-4113
2236,-138,168,-4050
2237,0,168,-4050
2238,0,198,-4050
2239,-45,225,-4050
2240,-99,225,-3999
2241,-99,282,-4050
2242,-189,282,-4050
2243,-189,231,-4059
2244,-165,171,-4059
2245,-111,171,-4089
2246,-111,204,-4068
2247,-117,261,-4068
2248,-117,261,-4110
2249,-27,228,-4110
2250,-135,228,-4119
2251,-135,243,-4155
2252,-111,198,-4155
2253,-111,198,-4140
2254,-33,228,-4140
2255,6,228,-4224
2256,6,222,-4158
2257,-132,213,-4158
2258,-162,213,-4158
2259,-162,249,-4158
2260,-9,249,-4125
2261,-9,306,-4125
2262,0,210,-4125
2263,-63,210,-4128
2264,-63,174,-4128
2265,-111,174,-4128
2266,-111,213,-4164
2267,-81,180,-4164
2268,-42,180,-4185
2269,-42,252,-4113
2270,-9,252,-4113
2271,-9,324,-4059
2272,-168,228,-4059
2273,-183,228,-4065
2274,-183,177,-4158
2275,-87,213,-4158
2276,-87,213,-4185
2277,-105,237,-4185
2278,-114,237,-4143
2279,-114,180,-4065
2280,-45,357,-4065
2281,-45,357,-4020
2282,-114,216,-4020
2283,-129,216,-4089
2284,-129,117,-4125
2285,-75,141,-4125
2286,-75,141,-4194
2287,-84,231,-4194
2288,-129,231,-4110
2289,-129,186,-4155
2290,-99,240,-4155
2291,-42,240,-4110
2292,-42,222,-4110
2293,-42,222,-4089
2294,-42,219,-4068
2295,-120,165,-4068
2296,-60,165,-4113
2297,-60,90,-4149
2298,-60,90,-4149
2299,-60,231,-4158
2300,-42,222,-4158
2301,33,222,-4089
2302,33,243,-4113
2303,-24,243,-4113
2304,-24,168,-4104
2305,-114,177,-4104
2306,-153,177,-4164
2307,-153,174,-4113
2308,-15,264,-4113
2309,-15,264,-4149
2310,6,246,-4149
2311,-117,246,-4065
2312,-117,171,-4113
2313,-102,183,-4113
2314,-102,183,-4083
2315,-51,162,-4083
2316,51,162,-4083
2317,51,189,-4110
2318,-36,174,-4110
2319,-36,174,-4149
2320,-60,150,-4149
2321,198,150,-4128
2322,198,192,-4194
2323,156,105,-4194
2324,9,105,-4284
2325,9,90,-4284
2326,-9,90,-4185
2327,-9,81,-4290
2328,45,123,-4290
2329,60,123,-4386
2330,60,-6,-4524
2331,102,-6,-4524
2332,102,39,-4785
2333,153,-30,-4785
2334,189,-30,-4857
2335,189,-294,-5118
2336,231,-294,-5118
2337,231,-312,-5439
2338,261,-315,-5439
2339,156,-315,-5703
2340,156,-381,-5583
2341,318,-381,-5583
2342,318,-162,-5502
2343,543,-108,-5502
2344,804,-108,-5679
2345,804,-540,-5499
2346,621,-900,-5499
2347,621,-900,-5382
2348,285,-858,-5382
2349,351,-858,-5277
2350,351,-852,-5268
2351,528,-855,-5268
2352,528,-855,-4863
2353,801,-846,-4863
2354,672,-846,-4536
2355,672,-951,-4374
2356,657,-1389,-4374
2357,369,-1389,-4275
2358,369,-1548,-4275
2359,234,-1548,-4128
2360,234,-1770,-3948
2361,249,-1932,-3948
2362,396,-1932,-3687
2363,396,-1554,-3687
2364,585,-1554,-3195
2365,585,-2190,-3120
2366,690,-2271,-3120
2367,456,-2271,-2982
2368,456,-2334,-2760
2369,156,-2334,-2760
2370,156,-2556,-2700
2371,216,-2688,-2700
2372,798,-2688,-2445
2373,798,-2502,-2004
2374,921,-2502,-2004
2375,921,-2862,-1917
2376,108,-3690,-1917
2377,-33,-3690,-2127
2378,-33,-2931,-1632
2379,939,-2178,-1632
2380,939,-2178,-1134
2381,687,-3525,-1134
2382,690,-3525,-1254
2383,690,-3915,-1239
2384,723,-3468,-1239
2385,723,-3468,-1116
2386,468,-3459,-1116
2387,1005,-3459,-798
2388,1005,-2757,-237
2389,1113,-3042,-237
2390,645,-3042,-153
2391,645,-3366,-153
2392,732,-3366,-57
2393,732,-3072,240
2394,816,-2718,240
2395,1068,-2718,561
2396,1068,-2463,936
2397,870,-2463,936
2398,870,-2715,906
2399,672,-2718,906
2400,702,-2718,1191
2401,702,-2412,1383
2402,492,-2412,1383
2403,492,-2196,1614
2404,471,-1785,1614
2405,684,-1785,1926
2406,684,-1506,2115
2407,507,-1224,2115
2408,507,-1224,2292
2409,753,-972,2292
2410,366,-972,2325
2411,366,-492,2601
2412,711,-213,2601
2413,711,-213,2829
2414,645,228,2829
2415,519,228,2973
2416,519,720,3420
2417,417,1035,3420
2418,-30,1035,3636
2419,-30,1035,3636
2420,60,1035,3513
2421,60,2340,3720
2422,147,1401,3720
2423,165,1401,3255
2424,165,1692,3414
2425,219,1692,3414
2426,219,1989,3639
2427,141,2277,3639
2428,-72,2277,3651
2429,-72,2418,3705
2430,-324,2418,3705
2431,-324,2928,3987
2432,-237,3657,3987
2433,-288,3657,4614
2434,-288,4782,5475
2435,-867,5865,5475
2436,-867,5865,6288
2437,-1410,6954,6288
2438,-1620,6954,7170
2439,-1620,7176,7311
2440,-1671,6516,7311
2441,-1671,6516,6540
2442,-1827,5220,6540
2443,-1614,5220,5355
2444,-1614,4236,4617
2445,-1143,3666,4617
2446,-852,3666,4353
2447,-852,2958,4353
2448,-711,2958,3804
2449,-711,2346,3504
2450,-204,2100,3504
2451,138,2100,3363
2452,138,2079,3363
2453,501,2079,3390
2454,501,1560,3003
2455,576,1026,3003
2456,747,1026,2703
2457,747,810,2757
2458,834,810,2757
2459,834,633,2802
2460,1044,234,2802
2461,1167,234,2457
2462,1167,-111,2391
2463,1443,-69,2391
2464,1443,-69,2478
2465,1413,-456,2478
2466,1095,-456,2451
2467,1095,-918,2307
2468,1269,-1065,2307
2469,1269,-1065,2211
2470,1191,-1629,2211
2471,1305,-1629,1869
2472,1305,-1806,1749
2473,1035,-1731,1749
2474,909,-1731,1818
2475,909,-1674,1818
2476,426,-1674,1941
2477,426,-2397,1377
2478,708,-3174,1377
2479,1212,-3174,966
2480,1212,-2442,1092
2481,783,-2442,1092
2482,783,-2118,1146
2483,159,-1971,1146
2484,69,-1971,1011
2485,69,-2640,366
2486,1089,-2640,366
2487,1089,-3735,-489
2488,1371,-2859,-489
2489,1410,-2859,-753
2490,1410,-2343,-804
2491,591,-2343,-804
2492,591,-2175,-1005
2493,69,-2268,-1005
2494,141,-2268,-1491
2495,141,-3672,-2118
2496,465,-3093,-2118
2497,465,-3093,-2202
2498,957,-2157,-2202
2499,1125,-2157,-2109
2500,1125,-1434,-2295
2501,906,-1524,-2295
2502,906,-1524,-2844
2503,567,-1860,-2844
2504,222,-1860,-3471
2505,222,-1992,-4098
2506,138,-1923,-4098
2507,348,-1923,-4479
2508,348,-1914,-4542
2509,639,-1914,-4542
2510,639,-2139,-4710
2511,774,-2664,-4710
2512,456,-2664,-4716
2513,456,-1962,-4740
2514,-411,-1962,-4740
2515,-411,-1101,-4587
2516,-666,-948,-4587
2517,144,-948,-4761
2518,144,-747,-4740
2519,948,-588,-4740
2520,948,-588,-4806
2521,1122,-771,-4806
2522,966,-771,-4926
2523,966,-354,-4875
2524,453,159,-4875
2525,453,159,-5082
2526,-93,318,-5082
2527,-132,318,-5217
2528,-132,468,-5403
2529,-12,237,-5403
2530,540,237,-5673
2531,540,-45,-5673
2532,879,-45,-5643
2533,879,-99,-5745
2534,687,24,-5745
2535,396,24,-5775
2536,396,-18,-5715
2537,159,-18,-5715
2538,159,114,-5403
2539,15,336,-5403
2540,42,336,-5214
2541,42,642,-4872
2542,423,642,-4872
2543,423,921,-4650
2544,627,777,-4650
2545,660,777,-4389
2546,660,753,-4296
2547,264,684,-4296
2548,264,684,-4119
2549,39,435,-4119
2550,72,435,-4155
2551,72,459,-3939
2552,105,690,-3939
2553,105,690,-3732
2554,147,720,-3732
2555,240,720,-3558
2556,240,618,-3648
2557,165,453,-3648
2558,63,453,-3708
2559,63,318,-3708
2560,138,318,-3888
2561,138,429,-3798
2562,216,342,-3798
2563,297,342,-3960
2564,297,537,-3885
2565,414,537,-3885
2566,414,615,-3879
2567,345,636,-3879
2568,156,636,-3945
2569,156,441,-4173
2570,240,495,-4173
2571,240,495,-4068
2572,213,372,-4068
2573,291,372,-4296
2574,291,429,-4275
2575,372,717,-4275
2576,372,717,-4089
2577,414,642,-4089
2578,156,642,-4236
2579,156,384,-4305
2580,228,498,-4305
2581,378,498,-4260
2582,378,501,-4260
2583,348,501,-4275
2584,348,537,-4164
2585,300,543,-4164
2586,207,543,-4215
2587,207,459,-4104
2588,318,459,-4104
2589,318,474,-4110
2590,240,504,-4110
2591,294,504,-4098
2592,294,525,-4098
2593,264,525,-4098
2594,264,465,-4044
2595,231,378,-4044
2596,213,378,-4080
2597,213,417,-4014
2598,234,444,-4014
2599,234,444,-4014
2600,348,489,-4014
2601,381,489,-3984
2602,381,381,-4089
2603,309,366,-4089
2604,309,366,-4119
2605,213,468,-4119
2606,195,468,-4008
2607,195,579,-4020
2608,312,486,-4020
2609,327,486,-4044
2610,327,360,-4044
2611,303,360,-4224
2612,303,306,-4155
2613,285,339,-4155
2614,162,339,-4236
2615,162,339,-4236
2616,174,339,-4191
2617,174,435,-4125
2618,303,453,-4125
2619,270,453,-4074
2620,270,486,-4020
2621,210,486,-4020
2622,210,411,-4125
2623,180,249,-4125
2624,213,249,-4149
2625,213,315,-4089
2626,189,315,-4089
2627,189,363,-4035
2628,252,441,-4035
2629,327,441,-3918
2630,327,417,-3939
2631,297,306,-3939
2632,297,306,-4074
2633,222,231,-4074
2634,318,231,-4044
2635,318,432,-4023
2636,315,351,-4023
2637,315,351,-4020
2638,294,378,-4020
2639,249,378,-4080
2640,249,492,-4053
2641,351,441,-4053
2642,450,441,-4095
2643,450,357,-4095
2644,315,357,-4221
2645,315,318,-4245
2646,258,369,-4245
2647,201,369,-4224
2648,201,390,-4191
2649,249,390,-4191
2650,249,369,-4164
2651,138,426,-4164
2652,159,426,-4125
2653,159,318,-4170
2654,228,318,-4170
2655,228,339,-4089
2656,246,402,-4089
2657,249,402,-4053
2658,249,447,-4068
2659,243,324,-4068
2660,243,324,-4044
2661,246,330,-4044
2662,231,330,-3984
2663,231,435,-3984
2664,69,288,-3984
2665,69,288,-4044
2666,216,366,-4044
2667,321,366,-4023
2668,321,390,-4053
2669,318,402,-4053
2670,132,402,-4068
2671,132,402,-4068
2672,96,402,-4113
2673,96,306,-4134
2674,282,390,-4134
2675,333,390,-4143
2676,333,381,-4134
2677,360,381,-4134
2678,360,390,-4200
2679,402,393,-4200
2680,423,393,-4143
2681,423,348,-4170
2682,402,348,-4170
2683,402,339,-4149
2684,396,387,-4149
2685,429,387,-4083
2686,429,393,-4065
2687,291,363,-4065
2688,291,363,-4104
2689,222,255,-4104
2690,354,255,-4089
2691,354,345,-4095
2692,315,321,-4095
2693,264,321,-4065
2694,264,396,-4065
2695,252,396,-4038
2696,252,390,-3984
2697,216,351,-3984
2698,231,351,-4035
2699,231,324,-3975
2700,294,324,-3975
2701,294,324,-4008
2702,312,345,-4008
2703,369,345,-4059
2704,369,366,-4050
2705,336,366,-4050
2706,336,363,-4020
2707,321,414,-4020
2708,318,414,-4020
2709,318,345,-4104
2710,390,411,-4104
2711,390,411,-4110
2712,345,453,-4110
2713,327,453,-4143
2714,327,417,-4158
2715,222,381,-4158
2716,222,381,-4224
2717,249,357,-4224
2718,384,357,-4149
2719,384,435,-4134
2720,381,468,-4134
2721,348,468,-4119
2722,348,465,-4119
2723,261,465,-4059
2724,261,396,-4074
2725,282,393,-4074
2726,201,393,-4065
2727,201,522,-4059
2728,249,522,-4059
2729,249,546,-4059
2730,303,474,-4059
2731,318,474,-4044
2732,318,504,-4044
2733,252,504,-4044
2734,252,411,-4194
2735,264,435,-4194
2736,222,435,-4173
2737,222,510,-4125
2738,261,495,-4125
2739,261,495,-4194
2740,228,474,-4194
2741,171,474,-4170
2742,171,459,-4200
2743,162,525,-4200
2744,114,525,-4209
2745,114,462,-4209
2746,285,462,-4113
2747,285,459,-4179
2748,318,468,-4179
2749,231,468,-4098
2750,231,486,-4119
2751,60,486,-4119
2752,60,366,-4155
2753,234,402,-4155
2754,339,402,-4029
2755,339,471,-4134
2756,249,471,-4134
2757,249,414,-4065
2758,84,450,-4065
2759,114,450,-4059
2760,114,510,-4044
2761,276,459,-4044
2762,276,459,-4104
2763,282,390,-4104
2764,339,390,-4128
2765,339,444,-4074
2766,363,396,-4074
2767,363,396,-4140
2768,282,477,-4140
2769,192,477,-4089
2770,192,408,-4095
2771,282,468,-4095
2772,300,468,-4104
2773,300,498,-4104
2774,330,498,-4080
2775,330,414,-4128
2776,330,432,-4128
2777,354,432,-4194
2778,354,372,-4140
2779,240,372,-4140
2780,240,402,-4155
2781,222,480,-4155
2782,291,480,-4134
2783,291,474,-4044
2784,294,474,-4044
2785,294,435,-4104
2786,258,393,-4104
2787,267,393,-4014
2788,267,402,-3978
2789,360,372,-3978
2790,360,372,-4029
2791,435,429,-4029
2792,330,429,-4020
2793,330,441,-3978
2794,243,432,-3978
2795,243,432,-3990
2796,249,423,-3990
2797,240,423,-4053
2798,240,432,-4089
2799,333,369,-4089
2800,369,369,-4215
2801,369,384,-4215
2802,318,384,-4194
2803,318,393,-4140
2804,258,426,-4140
2805,252,426,-4128
2806,252,447,-4158
2807,303,447,-4158
2808,303,477,-4119
2809,300,339,-4119
2810,321,339,-4185
2811,321,378,-4140
2812,351,378,-4140
2813,351,414,-4038
2814,369,339,-4038
2815,378,339,-4038
2816,378,348,-4068
2817,315,348,-4068
2818,315,348,-4098
2819,294,378,-4098
2820,240,378,-4068
2821,240,429,-4020
2822,333,378,-4020
2823,333,378,-3993
2824,348,348,-3993
2825,267,348,-4008
2826,267,387,-3993
2827,318,318,-3993
2828,378,318,-3999
2829,378,372,-3960
2830,381,372,-3960
2831,381,384,-3999
2832,258,402,-3999
2833,228,402,-4143
2834,228,369,-4200
2835,297,369,-4200
2836,297,318,-4266
2837,345,300,-4266
2838,360,300,-4200
2839,360,330,-4284
2840,360,417,-4284
2841,360,417,-4335
2842,321,360,-4335
2843,234,360,-4404
2844,234,243,-4521
2845,372,246,-4521
2846,372,246,-4479
2847,285,306,-4479
2848,207,306,-4425
2849,207,318,-4356
2850,297,270,-4356
2851,555,270,-4560
2852,555,165,-4560
2853,561,165,-4827
2854,561,93,-5076
2855,405,-99,-5076
2856,453,-99,-5394
2857,453,-144,-5394
2858,543,-144,-5478
2859,543,90,-5463
2860,657,-75,-5463
2861,537,-75,-5703
2862,537,-588,-5949
2863,318,-588,-5949
2864,318,-750,-6069
2865,561,-663,-6069
2866,618,-663,-6096
2867,618,-552,-5904
2868,918,-552,-5904
2869,918,-903,-5679
2870,924,-975,-5679
2871,609,-975,-5457
2872,609,-1095,-5328
2873,654,-1146,-5328
2874,654,-1146,-4968
2875,783,-1317,-4968
2876,783,-1317,-4635
2877,783,-1554,-4440
2878,795,-1695,-4440
2879,795,-1695,-4215
2880,786,-1974,-4215
2881,588,-1974,-4023
2882,588,-2025,-3558
2883,849,-1959,-3558
2884,1209,-1959,-2931
2885,1209,-1605,-2931
2886,1275,-1605,-2193
2887,1275,-1722,-1590
2888,1290,-2286,-1590
2889,1074,-2286,-1332
2890,1074,-2817,-1305
2891,867,-2817,-1305
2892,867,-2691,-1005
2893,714,-2229,-1005
2894,957,-2229,-393
2895,957,-2085,69
2896,1026,-2085,69
2897,1026,-2463,294
2898,1077,-2799,294
2899,858,-2799,420
2900,858,-2643,690
2901,849,-2589,690
2902,849,-2589,891
2903,1230,-2118,891
2904,1389,-2118,1464
2905,1389,-2241,1518
2906,1140,-2742,1518
2907,1140,-2742,1434
2908,1158,-2649,1434
2909,1041,-2649,1518
2910,1041,-2592,1503
2911,987,-2358,1503
2912,624,-2358,1743
2913,624,-2403,1743
2914,612,-2403,1644
2915,612,-2193,1854
2916,834,-1704,1854
2917,873,-1704,2205
2918,873,-1791,2079
2919,627,-1791,2079
2920,627,-1740,2235
2921,624,-1470,2235
2922,456,-1470,2457
2923,456,-1047,2658
2924,711,-1047,2658
2925,711,-579,2913
2926,750,-246,2913
2927,693,-246,2997
2928,693,-30,3060
2929,573,51,3060
2930,573,51,2988
2931,420,183,2988
2932,588,183,2943
2933,588,420,2979
2934,645,627,2979
2935,645,627,2922
2936,630,768,2922
2937,165,768,2994
2938,165,756,2856
2939,-384,1056,2856
2940,-423,1056,3042
2941,-423,1761,3042
2942,-162,1761,3408
2943,-162,2688,3987
2944,-405,3333,3987
2945,-663,3333,4476
2946,-663,4047,5070
2947,-1221,4047,5070
2948,-1221,5145,6072
2949,-1293,6498,6072
2950,-1215,6498,7176
2951,-1215,7242,7473
2952,-1032,7242,7473
2953,-1032,7125,7182
2954,-897,6783,7182
2955,-942,6783,6645
2956,-942,6063,6144
2957,-735,5145,6144
2958,-735,5145,5526
2959,-831,4350,5526
2960,-351,4350,4938
2961,-351,3720,4443
2962,-375,3135,4443
2963,-375,3135,4050
2964,-195,2559,4050
2965,-42,2559,3564
2966,-42,2085,3018
2967,-33,1716,3018
2968,210,1716,2766
2969,210,1653,2766
2970,402,1653,2826
2971,402,1488,2616
2972,369,975,2616
2973,402,975,2265
2974,402,384,1659
2975,225,384,1659
2976,225,-543,1308
2977,663,-1239,1308
2978,852,-1239,1122
2979,852,-1341,966
2980,561,-1341,966
2981,561,-1632,756
2982,282,-1836,756
2983,339,-1836,711
2984,339,-2082,741
2985,717,-2082,741
2986,717,-2130,564
2987,1035,-2061,564
2988,1122,-2061,360
2989,1122,-2076,-18
2990,687,-2238,-18
2991,687,-2238,-504
2992,360,-2520,-504
2993,372,-2520,-789
2994,372,-2478,-963
2995,780,-2463,-963
2996,780,-2463,-1254
2997,1017,-2487,-1254
2998,915,-2487,-1701
2999,915,-2445,-2028
3000,573,-2097,-2028
3001,573,-2097,-2358
3002,231,-2094,-2358
3003,105,-2094,-2955
3004,105,-2169,-3396
3005,54,-2124,-3396
3006,264,-2124,-3990
3007,264,-2394,-3990
3008,1380,-2394,-4365
3009,1380,-2076,-4020
3010,1971,-1866,-4020
3011,1071,-1866,-3843
3012,1071,-1506,-4029
3013,21,-1506,-4029
3014,21,-1464,-4602
3015,-639,-1578,-4602
3016,-102,-1578,-4971
3017,-102,-1818,-5031
3018,549,-1818,-5031
3019,549,-1800,-4686
3020,726,-1536,-4686
3021,198,-1536,-4521
3022,198,-1077,-4380
3023,-285,-825,-4380
3024,-285,-825,-4134
3025,-612,-936,-4134
3026,-87,-936,-3729
3027,-87,-741,-3693
3028,297,-261,-3693
3029,297,-261,-3612
3030,384,129,-3612
3031,369,129,-3594
3032,369,219,-3918
3033,195,171,-3918
3034,195,171,-4170
3035,-255,378,-4170
3036,-603,378,-4650
3037,-603,492,-5289
3038,-231,675,-5289
3039,381,675,-5964
3040,381,438,-5964
3041,429,438,-6477
3042,429,387,-6912
3043,-165,303,-6912
3044,-153,303,-7047
3045,-153,453,-6963
3046,15,453,-6963
3047,15,525,-6573
3048,75,639,-6573
3049,6,639,-6192
3050,6,792,-5715
3051,60,771,-5715
3052,60,771,-5184
3053,-222,648,-5184
3054,-420,648,-4671
3055,-420,561,-4098
3056,-282,372,-4098
3057,-282,372,-3807
3058,-102,360,-3807
3059,42,360,-3594
3060,42,465,-3336
3061,105,444,-3336
3062,78,444,-3075
3063,78,330,-3075
3064,-168,330,-3012
3065,-168,129,-2961
3066,-183,39,-2961
3067,-144,39,-3075
3068,-144,-15,-3210
3069,51,-15,-3210
3070,51,165,-3132
3071,159,312,-3132
3072,279,312,-3306
3073,279,330,-3396
3074,144,330,-3396
3075,144,273,-3738
3076,-57,36,-3738
3077,-36,36,-4014
3078,-36,123,-4245
3079,45,387,-4245
3080,45,387,-4446
3081,264,387,-4446
3082,339,387,-4572
3083,339,570,-4680
3084,246,399,-4680
3085,246,399,-4827
3086,240,372,-4827
3087,327,372,-4962
3088,327,333,-4938
3089,258,333,-4938
3090,372,333,-4716
3091,372,537,-4716
3092,174,537,-4536
3093,174,447,-4494
3094,-42,369,-4494
3095,63,369,-4326
3096,63,342,-4221
3097,93,342,-4221
3098,93,321,-4053
3099,228,441,-4053
3100,312,441,-3993
3101,312,339,-3885
3102,348,339,-3885
3103,348,417,-3738
3104,171,264,-3738
3105,111,264,-3819
3106,111,177,-3792
3107,201,336,-3792
3108,201,336,-3723
3109,408,285,-3723
3110,372,285,-3783
3111,372,279,-3774
3112,222,336,-3774
3113,318,336,-3900
3114,318,210,-3900
3115,399,210,-3948
3116,399,345,-3990
3117,336,351,-3990
3118,228,351,-4104
3119,228,366,-4104
3120,180,366,-4038
3121,180,294,-4143
3122,321,339,-4143
3123,360,339,-4245
3124,360,348,-4314
3125,363,348,-4314
3126,363,291,-4239
3127,405,369,-4239
3128,315,369,-4224
3129,315,408,-4314
3130,384,408,-4314
3131,384,471,-4209
3132,339,258,-4209
3133,372,258,-4311
3134,372,249,-4266
3135,297,279,-4266
3136,297,279,-4134
3137,327,366,-4134
3138,351,366,-4110
3139,351,447,-4038
3140,294,459,-4038
3141,294,459,-3930
3142,174,267,-3930
3143,249,267,-4050
3144,249,237,-3993
3145,243,270,-3993
3146,333,270,-3963
3147,333,357,-3963
3148,270,357,-3993
3149,270,357,-3963
3150,174,342,-3963
3151,207,342,-3990
3152,207,309,-4059
3153,321,309,-4059
3154,321,297,-4155
3155,372,300,-4155
3156,303,300,-4206
3157,303,345,-4155
3158,231,345,-4155
3159,231,363,-4134
3160,315,330,-4134
3161,267,330,-4065
3162,267,330,-4089
3163,312,279,-4089
3164,312,279,-4158
3165,408,261,-4158
3166,396,261,-4143
3167,396,369,-4050
3168,309,369,-4050
3169,309,369,-4050
3170,285,306,-4050
3171,243,306,-3954
3172,243,324,-4023
3173,261,273,-4023
3174,285,273,-4059
3175,285,294,-4059
3176,300,294,-4089
3177,300,309,-4098
3178,354,417,-4098
3179,312,417,-4095
3180,312,486,-4065
3181,267,486,-4065
3182,267,315,-4164
3183,234,261,-4164
3184,246,261,-4185
3185,246,369,-4173
3186,261,369,-4173
3187,261,396,-4236
3188,222,408,-4236
3189,216,408,-4164
3190,216,315,-4149
3191,282,315,-4149
3192,282,396,-4038
3193,231,396,-4038
3194,285,396,-4053
3195,285,342,-4014
3196,240,384,-4014
3197,240,384,-4050
3198,183,348,-4050
3199,216,348,-4044
3200,216,345,-4080
3201,207,387,-4080
3202,207,387,-4035
3203,159,396,-4035
3204,294,396,-4089
3205,294,375,-4029
3206,360,294,-4029
3207,369,294,-4128
3208,369,306,-4128
3209,345,306,-4149
3210,345,360,-4134
3211,192,441,-4134
3212,6,441,-4140
3213,6,246,-4140
3214,189,246,-4200
3215,189,132,-4143
3216,360,384,-4143
3217,594,384,-4095
3218,594,465,-4155
3219,567,465,-4155
3220,567,369,-4158
3221,228,243,-4158
3222,-12,243,-4230
3223,-12,384,-4215
3224,33,384,-4215
3225,33,438,-4200
3226,138,480,-4200
3227,258,480,-4143
3228,258,624,-4170
3229,141,492,-4170
3230,141,492,-4200
3231,45,318,-4200
3232,174,318,-4173
3233,174,357,-4305
3234,372,363,-4305
3235,372,363,-4326
3236,369,300,-4326
3237,261,300,-4275
3238,261,312,-4179
3239,147,318,-4179
3240,174,318,-4140
3241,174,291,-4140
3242,240,291,-4236
3243,240,336,-4140
3244,327,402,-4140
3245,417,402,-4080
3246,417,546,-3945
3247,321,546,-3945
3248,321,330,-4065
3249,303,264,-4065
3250,387,264,-4014
3251,387,243,-4038
3252,405,243,-4038
3253,405,225,-4059
3254,312,231,-4059
3255,216,231,-4065
3256,216,306,-4005
3257,282,348,-4005
3258,282,348,-3978
3259,390,276,-3978
3260,552,276,-3963
3261,552,288,-3939
3262,540,330,-3939
3263,540,330,-3915
3264,432,276,-3915
3265,321,276,-3933
3266,321,309,-3858
3267,234,294,-3858
3268,216,294,-3948
3269,216,393,-3948
3270,240,393,-4050
3271,240,330,-4104
3272,216,327,-4104
3273,156,327,-4164
3274,156,345,-4320
3275,192,345,-4320
3276,192,330,-4374
3277,282,327,-4374
3278,366,327,-4284
3279,366,261,-4296
3280,480,261,-4296
3281,480,333,-4209
3282,471,315,-4209
3283,396,315,-4149
3284,396,297,-4098
3285,465,183,-4098
3286,465,183,-4038
3287,585,264,-4038
3288,471,264,-4008
3289,471,234,-3963
3290,351,195,-3963
3291,351,195,-3843
3292,315,261,-3843
3293,300,261,-3909
3294,300,264,-3798
3295,414,219,-3798
3296,483,219,-3915
3297,483,291,-3915
3298,378,291,-3975
3299,378,216,-3969
3300,438,282,-3969
3301,459,282,-3993
3302,459,249,-4044
3303,558,249,-4044
3304,558,186,-4023
3305,543,240,-4023
3306,552,240,-4074
3307,552,270,-4200
3308,558,297,-4200
3309,558,297,-4179
3310,534,264,-4179
3311,504,264,-4113
3312,504,327,-4209
3313,396,306,-4209
3314,396,306,-4269
3315,309,243,-4269
3316,348,243,-4260
3317,348,264,-4209
3318,297,291,-4209
3319,207,291,-4128
3320,207,393,-4128
3321,189,393,-4080
3322,189,339,-4110
3323,225,261,-4110
3324,195,261,-4119
3325,195,255,-4119
3326,291,255,-4059
3327,291,291,-4110
3328,177,309,-4110
3329,84,309,-4014
3330,84,366,-4095
3331,51,366,-4095
3332,51,339,-4104
3333,198,315,-4104
3334,336,315,-4125
3335,336,294,-4164
3336,429,294,-4164
3337,429,336,-4119
3338,312,378,-4119
3339,228,378,-4155
3340,228,408,-4134
3341,435,381,-4134
3342,435,381,-4215
3343,519,351,-4215
3344,543,351,-4224
3345,543,375,-4215
3346,528,360,-4215
3347,528,360,-4206
3348,438,300,-4206
3349,480,300,-4221
3350,480,369,-4224
3351,441,360,-4224
3352,447,360,-4170
3353,447,378,-4170
3354,438,378,-4149
3355,438,342,-4209
3356,312,276,-4209
3357,297,276,-4143
3358,297,213,-4140
3359,321,213,-4140
3360,321,285,-4098
3361,387,300,-4098
3362,408,300,-3975
3363,408,291,-3828
3364,321,258,-3828
3365,321,258,-3948
3366,387,225,-3948
3367,537,225,-3864
3368,537,276,-3873
3369,618,297,-3873
3370,618,297,-3918
3371,612,276,-3918
3372,714,276,-3960
3373,714,192,-4029
3374,765,183,-4029
3375,735,183,-4080
3376,735,240,-4080
3377,729,240,-4080
3378,729,315,-4209
3379,798,321,-4209
3380,612,321,-4389
3381,612,192,-4389
3382,378,192,-4716
3383,378,276,-5118
3384,201,360,-5118
3385,612,360,-5628
3386,612,183,-5748
3387,975,183,-5748
3388,975,138,-5826
3389,981,300,-5826
3390,654,300,-5901
3391,654,318,-6120
3392,384,318,-6120
3393,384,132,-6300
3394,492,231,-6300
3395,690,231,-6276
3396,690,-6,-6561
3397,765,-78,-6561
3398,765,-78,-6342
3399,675,-297,-6342
3400,327,-297,-6180
3401,327,-249,-5904
3402,276,-438,-5904
3403,276,-438,-5763
3404,312,-777,-5763
3405,528,-777,-5535
3406,528,-945,-5433
3407,360,-1128,-5433
3408,156,-1128,-5277
3409,156,-1185,-5277
3410,45,-1185,-5073
3411,45,-1221,-4677
3412,171,-1254,-4677
3413,15,-1254,-4341
3414,15,-1176,-3612
3415,72,-1176,-3612
3416,72,-1314,-3042
3417,849,-1422,-3042
3418,852,-1422,-2388
3419,852,-1314,-1572
3420,465,-1314,-1572
3421,465,-1329,-888
3422,201,-1443,-888
3423,291,-1443,-177
3424,291,-2007,-21
3425,471,-2295,-21
3426,471,-2295,60
3427,612,-1938,60
3428,936,-1938,315
3429,936,-1032,1266
3430,810,-768,1266
3431,453,-768,1815
3432,453,-1197,1815
3433,579,-1197,1884
3434,579,-1266,1908
3435,333,-1299,1908
3436,777,-1299,1899
3437,777,-852,1899
3438,657,-852,2256
3439,657,-477,2541
3440,558,-663,2541
3441,519,-663,2460
3442,519,-540,2631
3443,237,-540,2631
3444,237,-294,2748
3445,312,-15,2748
3446,423,-15,2571
3447,423,30,2301
3448,69,-30,2301
3449,69,-30,1956
3450,-162,300,1956
3451,123,300,2115
3452,123,930,2562
3453,264,1419,2562
3454,264,1419,2841
3455,186,1824,2841
3456,-573,1824,2979
3457,-573,1992,3162
3458,-825,3090,3162
3459,-663,3090,4035
3460,-663,4710,4035
3461,-1050,4710,5349
3462,-1050,6648,7182
3463,-2256,8191,7182
3464,-2991,8191,8191
3465,-2991,8191,8191
3466,-2748,8191,8191
3467,-2748,8191,8191
3468,-1848,7776,8191
3469,-1455,7776,6609
3470,-1455,5634,4518
3471,-915,3954,4518
3472,-915,3954,3414
3473,-240,3048,3414
3474,324,3048,3078
3475,324,2457,2958
3476,552,1989,2958
3477,552,1989,2646
3478,849,1524,2646
3479,1488,1524,2322
3480,1488,1164,2184
3481,1440,1050,2184
3482,1284,1050,2391
3483,1284,876,2391
3484,1155,876,2436
3485,1155,408,2064
3486,1191,-165,2064
3487,1206,-165,1569
3488,1206,-393,1473
3489,1266,-393,1473
3490,1266,-267,1593
3491,999,-330,1593
3492,423,-330,1368
3493,423,-1035,609
3494,-717,-1035,609
3495,-717,-2127,-27
3496,-354,-2820,-27
3497,-129,-2820,-273
3498,-129,-3075,-423
3499,147,-3075,-423
3500,147,-2652,-318
3501,285,-2220,-318
3502,957,-2220,-372
3503,957,-2085,-627
3504,936,-2172,-627
3505,936,-2172,-930
3506,675,-2178,-930
3507,216,-2178,-1335
3508,216,-2460,-1683
3509,354,-2427,-1683
3510,354,-2427,-1752
3511,672,-1755,-1752
3512,630,-1755,-2043
3513,630,-1440,-2373
3514,222,-1191,-2373
3515,-168,-1191,-3126
3516,-168,-1053,-3126
3517,318,-1053,-3933
3518,318,-966,-4827
3519,1056,-1296,-4827
3520,1332,-1296,-5292
3521,1332,-1695,-5319
3522,888,-1695,-5319
3523,888,-1509,-5247
3524,141,-1245,-5247
3525,-324,-1245,-5337
3526,-324,-828,-5229
3527,-426,-828,-5229
3528,-426,-945,-5259
3529,-27,-1236,-5259
3530,231,-1236,-5307
3531,231,-1371,-4968
3532,258,-936,-4968
3533,258,-936,-4692
3534,-333,-450,-4692
3535,-603,-450,-4401
3536,-603,-75,-4035
3537,-579,117,-4035
3538,-579,117,-4143
3539,-15,204,-4143
3540,87,204,-4266
3541,87,264,-4545
3542,180,486,-4545
3543,-111,486,-4866
3544,-111,564,-4866
3545,-309,564,-5484
3546,-309,21,-6192
3547,-252,6,-6192
3548,-45,6,-6447
3549,-45,120,-6612
3550,363,120,-6612
3551,363,312,-6618
3552,510,657,-6618
3553,498,657,-6372
3554,498,588,-6171
3555,378,588,-6171
3556,378,306,-6009
3557,63,261,-6009
3558,132,261,-5565
3559,132,315,-5061
3560,282,315,-5061
3561,282,426,-4485
3562,291,291,-4485
3563,120,291,-4113
3564,120,219,-3723
3565,-75,150,-3723
3566,-75,150,-3447
3567,-36,69,-3447
3568,240,69,-3276
3569,240,222,-3075
3570,378,258,-3075
3571,378,258,-3042
3572,420,138,-3042
3573,297,138,-3021
3574,297,-147,-3120
3575,279,-93,-3120
3576,348,-93,-3270
3577,348,-69,-3270
3578,429,-69,-3345
3579,429,36,-3462
3580,492,21,-3462
3581,603,21,-3633
3582,603,111,-3633
3583,597,111,-3813
3584,597,129,-4023
3585,552,120,-4023
3586,528,120,-4200
3587,528,45,-4449
3588,534,45,-4449
3589,534,54,-4521
3590,687,123,-4521
3591,558,123,-4680
3592,558,51,-4662
3593,480,51,-4662
3594,480,138,-4620
3595,498,297,-4620
3596,492,297,-4575
3597,492,300,-4479
3598,519,189,-4479
3599,519,189,-4434
3600,519,267,-4434
3601,441,267,-4269
3602,441,219,-4224
3603,471,105,-4224
3604,471,105,-4098
3605,537,207,-4098
3606,597,207,-3999
3607,597,237,-3909
3608,456,255,-3909
3609,360,255,-3852
3610,360,243,-3852
3611,489,243,-3768
3612,489,117,-3885
3613,645,192,-3885
3614,654,192,-3813
3615,654,240,-3885
3616,555,240,-3885
3617,555,132,-3909
3618,453,270,-3909
3619,450,270,-3984
3620,450,264,-4020
3621,576,264,-4020
3622,576,189,-4023
3623,432,117,-4023
3624,471,117,-4110
3625,471,174,-4266
3626,519,279,-4266
3627,519,279,-4245
3628,537,324,-4245
3629,441,324,-4236
3630,441,129,-4305
3631,387,210,-4305
3632,387,210,-4206
3633,450,258,-4206
3634,471,258,-4209
3635,471,162,-4173
3636,492,198,-4173
3637,432,198,-4185
3638,432,180,-4185
3639,456,180,-4140
3640,456,300,-4119
3641,333,138,-4119
3642,312,138,-4080
3643,312,222,-3993
3644,414,222,-3993
3645,414,219,-4005
3646,588,261,-4005
3647,543,261,-3999
3648,543,141,-4014
3649,438,141,-4014
3650,438,153,-3945
3651,486,207,-3945
3652,519,207,-3963
3653,519,177,-4089
3654,657,219,-4089
3655,657,219,-4104
3656,501,168,-4104
3657,591,168,-4068
3658,591,192,-3963
3659,534,195,-3963
3660,534,195,-4053
3661,543,165,-4053
3662,591,165,-4083
3663,591,198,-4119
3664,453,246,-4119
3665,453,246,-4104
3666,624,324,-4104
3667,549,324,-4104
3668,549,219,-4164
3669,657,153,-4164
3670,561,153,-4119
3671,561,183,-4119
3672,558,183,-4209
3673,558,159,-4110
3674,567,267,-4110
3675,639,267,-4110
3676,639,228,-4095
3677,675,228,-4095
3678,675,264,-4083
3679,501,168,-4083
3680,570,168,-4029
3681,570,195,-4014
3682,585,195,-4014
3683,585,231,-4029
3684,567,279,-4029
3685,507,279,-3948
3686,507,237,-3960
3687,642,237,-3960
3688,642,216,-4065
3689,501,120,-4065
3690,522,120,-3990
3691,522,210,-4089
3692,603,234,-4089
3693,603,234,-4023
3694,450,198,-4023
3695,435,198,-4080
3696,435,309,-4095
3697,555,258,-4095
3698,555,258,-4089
3699,690,153,-4089
3700,522,153,-4149
3701,522,189,-4158
3702,552,180,-4158
3703,552,180,-4125
3704,630,261,-4125
3705,507,261,-4068
3706,507,273,-4143
3707,456,258,-4143
3708,630,258,-4050
3709,630,234,-4050
3710,675,234,-4089
3711,675,213,-4068
3712,522,207,-4068
3713,552,207,-3984
3714,552,192,-4050
3715,516,192,-4050
3716,516,225,-4089
3717,555,210,-4089
3718,603,210,-4044
3719,603,198,-4023
3720,540,198,-4023
3721,540,249,-4065
3722,555,249,-4065
3723,573,249,-4068
3724,573,156,-4065
3725,591,156,-4065
3726,591,198,-4095
3727,561,249,-4095
3728,522,249,-4053
3729,522,213,-4113
3730,498,270,-4113
3731,498,270,-4125
3732,567,207,-4125
3733,576,207,-4128
3734,576,213,-4158
3735,525,219,-4158
3736,525,219,-4080
3737,465,228,-4080
3738,549,228,-4095
3739,549,258,-4053
3740,510,222,-4053
3741,567,222,-4128
3742,567,270,-4128
3743,660,270,-4083
3744,660,216,-4083
3745,492,168,-4083
3746,576,168,-4080
3747,576,198,-4029
3748,552,198,-4029
3749,552,162,-4080
3750,459,180,-4080
3751,429,180,-4059
3752,429,198,-4089
3753,639,198,-4089
3754,639,207,-4074
3755,648,210,-4074
3756,537,210,-4089
3757,537,144,-4050
3758,486,144,-4050
3759,486,213,-4068
3760,540,207,-4068
3761,561,207,-4038
3762,561,237,-4083
3763,525,135,-4083
3764,525,135,-4053
3765,579,234,-4053
3766,561,234,-4053
3767,561,192,-4089
3768,543,165,-4089
3769,543,165,-4059
3770,468,240,-4059
3771,528,240,-4104
3772,528,231,-4098
3773,498,216,-4098
3774,486,216,-4080
3775,486,138,-4080
3776,567,138,-4080
3777,567,243,-4083
3778,606,240,-4083
3779,579,240,-4104
3780,579,189,-4104
3781,558,189,-4179
3782,558,258,-4128
3783,534,237,-4128
3784,420,237,-4068
3785,420,159,-4119
3786,483,159,-4119
3787,483,231,-4113
3788,567,237,-4113
3789,642,237,-4065
3790,642,186,-4125
3791,519,189,-4125
3792,519,189,-4080
3793,465,261,-4080
3794,537,261,-4038
3795,537,240,-4035
3796,609,231,-4035
3797,609,231,-4104
3798,522,168,-4104
3799,459,168,-4149
3800,459,216,-4053
3801,597,318,-4053
3802,597,318,-4050
3803,561,177,-4050
3804,492,177,-4053
3805,492,237,-4134
3806,480,207,-4134
3807,597,207,-4095
3808,597,237,-4095
3809,612,237,-4095
3810,612,246,-4110
3811,543,186,-4110
3812,537,186,-4080
3813,537,261,-4074
3814,585,261,-4074
3815,585,246,-4110
3816,543,186,-4110
3817,525,186,-4095
3818,525,195,-4068
3819,522,195,-4068
3820,522,192,-4050
3821,594,216,-4050
3822,609,216,-4059
3823,609,237,-4050
3824,528,237,-4050
3825,528,213,-4059
3826,555,213,-4059
3827,534,213,-4074
3828,534,228,-4089
3829,486,213,-4089
3830,486,213,-4098
3831,519,234,-4098
3832,489,234,-4068
3833,489,234,-4119
3834,510,183,-4119
3835,510,183,-4098
3836,543,195,-4098
3837,528,195,-4068
3838,528,240,-4035
3839,540,270,-4035
3840,519,270,-4044
3841,519,207,-4044
3842,549,207,-4179
3843,549,156,-4173
3844,603,156,-4173
3845,516,156,-4110
3846,516,216,-4140
3847,486,216,-4140
3848,486,348,-4143
3849,492,246,-4143
3850,657,246,-4404
3851,657,24,-5208
3852,459,24,-5208
3853,459,213,-5337
3854,618,324,-5337
3855,672,324,-5574
3856,672,-312,-6069
3857,756,-312,-6069
3858,756,-336,-6144
3859,690,6,-6144
3860,741,6,-6054
3861,741,-147,-5919
3862,1221,-252,-5919
3863,1221,-252,-6216
3864,630,-249,-6216
3865,570,-249,-5868
3866,570,-267,-5553
3867,282,-357,-5553
3868,282,-357,-5322
3869,240,-471,-5322
3870,447,-471,-5118
3871,447,-822,-4863
3872,573,-1071,-4863
3873,648,-1071,-4656
3874,648,-855,-4656
3875,504,-855,-4341
3876,504,-1122,-4185
3877,504,-1530,-4185
3878,369,-1530,-3993
3879,369,-1839,-3993
3880,519,-1839,-3753
3881,519,-1806,-3492
3882,627,-1803,-3492
3883,537,-1803,-3252
3884,537,-2295,-3066
3885,591,-2295,-3066
3886,591,-2430,-2805
3887,777,-2274,-2805
3888,852,-2274,-2328
3889,852,-2379,-1932
3890,867,-2652,-1932
3891,867,-2652,-1653
3892,699,-2664,-1653
3893,693,-2664,-1365
3894,693,-2883,-1206
3895,924,-2874,-1206
3896,924,-2874,-870
3897,1161,-2691,-870
3898,1173,-2691,-363
3899,1173,-2625,-87
3900,981,-2832,-87
3901,981,-2832,264
3902,1038,-2805,264
3903,1092,-2805,414
3904,1092,-2625,747
3905,1011,-2700,747
3906,660,-2700,741
3907,660,-2817,741
3908,957,-2817,882
3909,957,-2397,1359
3910,1086,-2265,1359
3911,1104,-2265,1587
3912,1104,-2448,1557
3913,1146,-2448,1557
3914,1146,-1629,2361
3915,873,-1986,2361
3916,810,-1986,2181
3917,810,-1953,2169
3918,882,-1953,2169
3919,882,-1632,2295
3920,798,-1542,2295
3921,828,-1542,2382
3922,828,-1209,2568
3923,783,-1110,2568
3924,783,-1110,2628
3925,543,-1005,2628
3926,438,-1005,2808
3927,438,-654,3063
3928,285,-489,3063
3929,285,-489,3150
3930,156,-402,3150
3931,30,-402,3093
3932,30,-378,2982
3933,-120,-246,2982
3934,-102,-246,3003
3935,-102,-150,3039
3936,-30,-150,3039
3937,-30,180,3012
3938,-84,417,3012
3939,-423,417,2994
3940,-423,726,3087
3941,-729,726,3087
3942,-729,1158,3300
3943,-906,1956,3300
3944,-339,1956,3927
3945,-339,3336,5025
3946,-813,2466,5025
3947,-813,2466,5274
3948,-1086,4956,5274
3949,-1869,4956,6342
3950,-1869,6834,8115
3951,-1923,8191,8115
3952,-1923,8191,8191
3953,-1617,8046,8191
3954,-1311,8046,8133
3955,-1311,6420,6393
3956,-1143,4911,6393
3957,-1143,4911,5079
3958,-987,3807,5079
3959,-906,3807,4377
3960,-906,3213,4227
3961,-567,2823,4227
3962,-282,2823,4080
3963,-282,2511,4080
3964,117,2511,3915
3965,117,2346,3615
3966,306,1806,3615
3967,303,1806,2949
3968,303,1332,2607
3969,621,1332,2607
3970,621,1239,2376
3971,621,918,2376
3972,621,918,2070
3973,621,531,1620
3974,474,-135,1620
3975,474,-135,1152
3976,591,-471,1152
3977,1158,-471,795
3978,1158,-1146,471
3979,1038,-1518,471
3980,1038,-1518,69
3981,717,-2076,69
3982,261,-2076,-408
3983,261,-2385,-660
3984,-81,-2580,-660
3985,177,-2580,-909
3986,177,-2799,-909
3987,717,-2799,-1080
3988,717,-2808,-1161
3989,1101,-2838,-1161
3990,1155,-2838,-1386
3991,1155,-2988,-1692
3992,1299,-2988,-1692
3993,1299,-3039,-1737
3994,1170,-2874,-1737
3995,729,-2874,-1821
3996,729,-2706,-1803
3997,312,-2706,-1803
3998,312,-2262,-1881
3999,153,-1740,-1881
4000,-51,-1740,-2328
4001,-51,-1857,-2895
4002,-9,-2193,-2895
4003,-9,-2193,-3507
4004,78,-2433,-3507
4005,408,-2433,-3732
4006,408,-1902,-4098
4007,528,-1467,-4098
4008,528,-1467,-4170
4009,798,-1584,-4170
4010,630,-1584,-4170
4011,630,-1659,-4446
4012,72,-1563,-4446
4013,-327,-1563,-4755
4014,-327,-1644,-4755
4015,-237,-1644,-4986
4016,-237,-1701,-4917
4017,-9,-1452,-4917
4018,123,-1452,-4626
4019,123,-1137,-4440
4020,-18,-1137,-4440
4021,-18,-915,-4485
4022,-267,-588,-4485
4023,-582,-588,-4611
4024,-582,-801,-4515
4025,-240,-801,-4515
4026,-240,-747,-4416
4027,9,-486,-4416
4028,78,-486,-4215
4029,78,-354,-4194
4030,-51,-387,-4194
4031,-51,-387,-4284
4032,-135,-441,-4284
4033,-144,-441,-4233
4034,-144,-108,-4200
4035,45,204,-4200
4036,45,204,-4305
4037,207,273,-4305
4038,399,273,-4485
4039,399,192,-4887
4040,294,243,-4887
4041,156,243,-5244
4042,156,486,-5244
4043,45,486,-5535
4044,45,510,-5889
4045,192,438,-5889
4046,408,438,-6021
4047,408,414,-6024
4048,489,414,-6024
4049,489,516,-5880
4050,516,477,-5880
4051,312,477,-5724
4052,312,516,-5505
4053,363,516,-5505
4054,363,351,-5148
4055,441,390,-5148
4056,354,390,-4770
4057,354,321,-4425
4058,162,324,-4425
4059,162,324,-4068
4060,144,279,-4068
4061,189,279,-3774
4062,189,294,-3492
4063,72,141,-3492
4064,72,141,-3426
4065,234,318,-3426
4066,354,318,-3180
4067,354,135,-3186
4068,300,231,-3186
4069,345,231,-3081
4070,345,135,-3081
4071,270,135,-3351
4072,270,-39,-3423
4073,210,105,-3423
4074,405,105,-3579
4075,405,156,-3567
4076,405,156,-3567
4077,405,180,-3768
4078,390,186,-3768
4079,432,186,-3924
4080,432,297,-4110
4081,429,297,-4110
4082,429,195,-4290
4083,480,309,-4290
4084,435,309,-4371
4085,435,369,-4485
4086,438,330,-4485
4087,438,330,-4581
4088,429,345,-4581
4089,366,345,-4590
4090,366,309,-4656
4091,465,261,-4656
4092,465,261,-4551
4093,522,330,-4551
4094,468,330,-4551
4095,468,381,-4389
4096,387,372,-4389
4097,354,372,-4266
4098,354,339,-4266
4099,402,339,-4113
4100,402,387,-4044
4101,387,306,-4044
4102,408,306,-3975
4103,408,297,-3879
4104,438,297,-3879
4105,438,312,-3918
4106,483,300,-3918
4107,447,300,-3864
4108,447,330,-3969
4109,468,330,-3969
4110,468,384,-3849
4111,498,324,-3849
4112,540,324,-3948
4113,540,228,-3969
4114,561,300,-3969
4115,561,300,-3984
4116,525,267,-3984
4117,501,267,-4065
4118,501,300,-4008
4119,558,345,-4008
4120,558,345,-4104
4121,585,429,-4104
4122,534,429,-4125
4123,534,318,-4113
4124,543,261,-4113
4125,522,261,-4206
4126,522,243,-4206
4127,555,243,-4260
4128,555,312,-4221
4129,543,327,-4221
4130,471,327,-4119
4131,471,348,-4119
4132,483,348,-4119
4133,483,321,-4113
4134,594,309,-4113
4135,630,309,-4074
4136,630,267,-4089
4137,543,267,-4089
4138,543,309,-4005
4139,540,291,-4005
4140,456,291,-4044
4141,456,249,-4029
4142,402,342,-4029
4143,402,342,-3960
4144,489,345,-3960
4145,507,345,-3948
4146,507,267,-4014
4147,570,315,-4014
4148,570,315,-4095
4149,555,159,-4095
4150,561,159,-4113
4151,561,258,-4068
4152,645,309,-4068
4153,534,309,-4053
4154,534,321,-4053
4155,519,321,-4050
4156,519,342,-4104
4157,657,285,-4104
4158,714,285,-4059
4159,714,288,-4158
4160,558,288,-4158
4161,558,273,-4110
4162,558,234,-4110
4163,681,234,-4206
4164,681,246,-4149
4165,711,246,-4149
4166,711,276,-4050
4167,693,312,-4050
4168,579,312,-4020
4169,579,408,-4023
4170,486,261,-4023
4171,486,261,-3930
4172,501,183,-3930
4173,540,183,-4020
4174,540,189,-4020
4175,534,267,-4020
4176,483,267,-3993
4177,483,327,-3993
4178,555,327,-3984
4179,555,330,-4020
4180,660,273,-4020
4181,636,273,-4089
4182,636,393,-4089
4183,696,393,-4119
4184,696,441,-4143
4185,666,375,-4143
4186,645,375,-4209
4187,645,324,-4194
4188,480,324,-4194
4189,480,255,-4230
4190,351,246,-4230
4191,252,246,-4179
4192,252,132,-4266
4193,264,132,-4266
4194,264,141,-4158
4195,471,342,-4158
4196,648,342,-4038
4197,648,282,-3999
4198,567,282,-3999
4199,567,279,-3993
4200,474,237,-3993
4201,624,237,-4014
4202,624,129,-4029
4203,678,108,-4029
4204,678,108,-4068
4205,783,207,-4068
4206,792,207,-3903
4207,792,315,-3798
4208,843,171,-3798
4209,843,171,-3879
4210,660,216,-3879
4211,624,216,-3885
4212,624,219,-3918
4213,579,213,-3918
4214,432,213,-3885
4215,432,261,-3885
4216,294,261,-3999
4217,294,672,-4065
4218,552,633,-4065
4219,750,633,-3990
4220,750,594,-4083
4221,798,594,-4083
4222,798,369,-4260
4223,591,312,-4260
4224,450,312,-4479
4225,450,246,-4557
4226,459,246,-4557
4227,459,264,-4590
4228,609,222,-4590
4229,666,222,-4461
4230,666,294,-4254
4231,657,393,-4254
4232,657,393,-4128
4233,588,285,-4128
4234,540,285,-4065
4235,540,225,-3993
4236,420,336,-3993
4237,420,336,-3933
4238,408,453,-3933
4239,330,453,-3819
4240,330,459,-3738
4241,267,435,-3738
4242,363,435,-3807
4243,363,378,-3807
4244,483,378,-3834
4245,483,258,-3969
4246,507,192,-3969
4247,498,192,-4089
4248,498,213,-4089
4249,636,213,-4110
4250,636,342,-4143
4251,666,378,-4143
4252,714,378,-4044
4253,714,375,-4191
4254,717,375,-4191
4255,717,183,-4143
4256,795,291,-4143
4257,732,291,-4200
4258,732,327,-4140
4259,666,327,-4140
4260,666,282,-4134
4261,630,381,-4134
4262,693,381,-4038
4263,693,390,-4053
4264,726,375,-4053
4265,726,375,-4005
4266,714,411,-4005
4267,648,411,-3993
4268,648,333,-4023
4269,567,297,-4023
4270,567,297,-4065
4271,540,309,-4065
4272,594,309,-4044
4273,594,375,-4029
4274,699,330,-4029
4275,537,330,-4035
4276,537,339,-4035
4277,456,339,-4023
4278,456,399,-4080
4279,522,321,-4080
4280,558,321,-4095
4281,558,384,-4158
4282,540,384,-4158
4283,540,417,-4119
4284,414,291,-4119
4285,390,291,-4221
4286,390,327,-4251
4287,417,327,-4251
4288,417,375,-4155
4289,387,378,-4155
4290,384,378,-4191
4291,384,360,-4209
4292,480,351,-4209
4293,480,351,-4113
4294,516,327,-4113
4295,498,327,-4194
4296,498,288,-4050
4297,456,330,-4050
4298,456,330,-4065
4299,501,342,-4065
4300,594,342,-4029
4301,594,318,-4053
4302,606,264,-4053
4303,606,264,-4008
4304,576,342,-4008
4305,504,342,-3960
4306,504,324,-3903
4307,588,315,-3903
4308,672,315,-3945
4309,672,294,-3945
4310,663,294,-4065
4311,663,339,-3903
4312,585,321,-3903
4313,588,321,-4020
4314,588,294,-4029
4315,645,294,-4029
4316,645,291,-4128
4317,630,309,-4128
4318,591,309,-4065
4319,591,375,-4119
4320,567,375,-4119
4321,567,369,-4104
4322,498,351,-4104
4323,498,351,-4113
4324,498,366,-4215
4325,543,366,-4215
4326,543,342,-4095
4327,609,321,-4095
4328,537,321,-4140
4329,537,342,-4143
4330,609,312,-4143
4331,609,312,-4080
4332,552,351,-4080
4333,558,351,-4020
4334,558,339,-4068
4335,537,345,-4068
4336,537,345,-4065
4337,522,261,-4065
4338,555,261,-4038
4339,555,327,-4068
4340,543,309,-4068
4341,543,309,-4065
4342,486,327,-4065
4343,537,327,-4125
4344,537,267,-4050
4345,603,339,-4050
4346,603,339,-4098
4347,603,306,-4098
4348,540,306,-4110
4349,540,261,-4098
4350,501,261,-4098
4351,510,261,-4074
4352,510,279,-4074
4353,597,279,-4191
4354,597,285,-4164
4355,534,291,-4164
4356,507,291,-4185
4357,507,270,-4299
4358,480,270,-4299
4359,480,222,-4395
4360,414,198,-4395
4361,417,198,-4410
4362,417,159,-4461
4363,450,159,-4461
4364,450,168,-4326
4365,345,219,-4326
4366,153,219,-4461
4367,153,207,-4566
4368,240,-15,-4566
4369,240,-15,-4677
4370,534,-51,-4677
4371,795,-51,-4575
4372,795,-15,-4530
4373,873,96,-4530
4374,873,96,-4431
4375,642,132,-4431
4376,54,132,-4542
4377,54,24,-4707
4378,42,-198,-4707
4379,258,-198,-4842
4380,258,-294,-4842
4381,639,-294,-4791
4382,639,-519,-5037
4383,654,-426,-5037
4384,558,-426,-5202
4385,558,-426,-5202
4386,360,-426,-5382
4387,360,-255,-5334
4388,468,-357,-5334
4389,705,-357,-5178
4390,705,-489,-5061
4391,561,-489,-5061
4392,561,-1008,-5157
4393,354,-1473,-5157
4394,153,-1473,-5268
4395,153,-2178,-5769
4396,60,-2178,-5769
4397,60,-2505,-6252
4398,522,-1362,-6252
4399,660,-1362,-5730
4400,660,-1152,-5142
4401,780,-1044,-5142
4402,780,-1044,-4461
4403,768,-1638,-4461
4404,663,-1638,-3939
4405,663,-1995,-3612
4406,555,-2283,-3612
4407,555,-2283,-3516
4408,810,-2175,-3516
4409,1125,-2175,-3075
4410,1125,-1938,-2538
4411,966,-2094,-2538
4412,693,-2094,-2088
4413,693,-2424,-2088
4414,1032,-2424,-1683
4415,1032,-2316,-963
4416,1437,-2259,-963
4417,1281,-2259,-489
4418,1281,-2562,-288
4419,1041,-2562,-288
4420,1041,-2634,45
4421,1062,-2436,45
4422,930,-2436,189
4423,930,-2601,270
4424,828,-2601,270
4425,828,-2718,396
4426,999,-2307,396
4427,1263,-2307,876
4428,1263,-1944,1452
4429,1146,-1968,1452
4430,1146,-1968,1653
4431,1077,-2286,1653
4432,969,-2286,1593
4433,969,-2367,1593
4434,903,-2184,1593
4435,903,-2184,1860
4436,813,-1830,1860
4437,957,-1830,2004
4438,957,-1635,2220
4439,882,-1446,2220
4440,801,-1446,2295
4441,801,-1413,2295
4442,552,-1413,2331
4443,552,-1500,2310
4444,552,-1365,2310
4445,594,-1365,2592
4446,594,-663,2592
4447,420,-663,3078
4448,420,-300,3345
4449,57,-279,3345
4450,-420,-279,3369
4451,-420,-1101,2817
4452,-180,-1101,2817
4453,-180,-27,2979
4454,-129,531,2979
4455,-117,531,3204
4456,-117,735,3330
4457,-168,735,3330
4458,-168,915,3384
4459,-396,897,3384
4460,-684,897,3384
4461,-684,1221,3561
4462,-750,1689,3561
4463,-750,1689,3915
4464,-873,2211,3915
4465,-1065,2211,4386
4466,-1065,2865,4953
4467,-1599,3225,4953
4468,-1599,3225,5487
4469,-2541,3705,5487
4470,-3093,3705,6033
4471,-3093,4815,6885
4472,-2646,5739,6885
4473,-2355,5739,7512
4474,-2355,6060,7512
4475,-2286,6060,7497
4476,-2286,5442,6801
4477,-2385,4353,6801
4478,-2229,4353,5817
4479,-2229,3603,5340
4480,-1920,3603,5340
4481,-1920,3135,5040
4482,-1545,2658,5040
4483,-888,2658,4467
4484,-888,2229,4011
4485,-663,2229,4011
4486,-663,1803,3564
4487,-687,1362,3564
4488,-597,1362,3204
4489,-597,840,2673
4490,-324,435,2673
4491,-324,435,2430
4492,12,393,2430
4493,390,393,2622
4494,390,522,2898
4495,513,342,2898
4496,513,342,2772
4497,504,-468,2772
4498,336,-468,2202
4499,336,-1389,1554
4500,789,-1887,1554
4501,909,-1887,1527
4502,909,-1629,1527
4503,939,-1629,1584
4504,939,-1476,1434
4505,561,-1842,1434
4506,519,-1842,1161
4507,519,-2226,690
4508,597,-2226,690
4509,597,-2817,225
4510,603,-3141,225
4511,768,-3141,-93
4512,768,-3369,-243
4513,951,-3369,-243
4514,951,-3519,-237
4515,1068,-3243,-237
4516,999,-3243,-369
4517,999,-3198,-402
4518,1191,-2994,-402
4519,1191,-2994,-483
4520,1263,-2835,-483
4521,1593,-2835,-720
4522,1593,-2925,-870
4523,1641,-2748,-870
4524,1641,-2748,-1071
4525,1695,-2679,-1071
4526,1743,-2679,-1200
4527,1743,-2478,-1470
4528,1470,-2445,-1470
4529,1248,-2445,-1782
4530,1248,-2643,-1782
4531,906,-2643,-1983
4532,906,-2436,-2199
4533,879,-2235,-2199
4534,1224,-2235,-2508
4535,1224,-1806,-2991
4536,1416,-1806,-2991
4537,1416,-1884,-3336
4538,1302,-1818,-3336
4539,867,-1818,-3774
4540,867,-1899,-4164
4541,921,-1899,-4164
4542,921,-2055,-4404
4543,1137,-1929,-4404
4544,1086,-1929,-4797
4545,1086,-1944,-5208
4546,618,-1890,-5208
4547,618,-1890,-5484
4548,303,-1866,-5484
4549,24,-1866,-5529
4550,24,-1887,-5475
4551,-201,-1830,-5475
4552,-201,-1830,-5229
4553,3,-1683,-5229
4554,318,-1683,-4857
4555,318,-1647,-4491
4556,540,-1452,-4491
4557,297,-1452,-4035
4558,297,-1227,-4035
4559,-408,-1227,-3648
4560,-408,-1029,-3471
4561,-750,-954,-3471
4562,-252,-954,-3348
4563,-252,-729,-3312
4564,567,-729,-3312
4565,567,-669,-3558
4566,1035,-975,-3558
4567,888,-975,-3738
4568,888,-954,-3789
4569,699,-954,-3789
4570,699,-585,-3849
4571,573,-321,-3849
4572,567,-321,-4098
4573,567,-420,-4284
4574,768,-456,-4284
4575,768,-456,-4485
4576,1005,-477,-4485
4577,936,-477,-4830
4578,936,-507,-5031
4579,732,-369,-5031
4580,732,-369,-5082
4581,561,-225,-5082
4582,705,-225,-5121
4583,705,-255,-5208
4584,981,-348,-5208
4585,819,-348,-5286
4586,819,-216,-5286
4587,777,-216,-5262
4588,777,-117,-5058
4589,744,-102,-5058
4590,846,-102,-4842
4591,846,-222,-4656
4592,666,-222,-4656
4593,666,-177,-4506
4594,471,-237,-4506
4595,567,-237,-4233
4596,567,-189,-4068
4597,618,-189,-4068
4598,618,-84,-3918
4599,696,-198,-3918
4600,504,-198,-3942
4601,504,-294,-4068
4602,408,-294,-4068
4603,408,-390,-4290
4604,381,-387,-4290
4605,504,-387,-4233
4606,504,-42,-4095
4607,663,3,-4095
4608,663,3,-4095
4609,768,-84,-4095
4610,717,-84,-4029
4611,717,-252,-3969
4612,597,-396,-3969
4613,597,-396,-3957
4614,420,-333,-3957
4615,450,-333,-3912
4616,450,-303,-3819
4617,591,-228,-3819
4618,519,-228,-3777
4619,519,-372,-3777
4620,636,-372,-3687
4621,636,-276,-3603
4622,549,-399,-3603
4623,498,-399,-3693
4624,498,-327,-3837
4625,522,-327,-3837
4626,522,-282,-3849
4627,657,-381,-3849
4628,516,-381,-3942
4629,516,-438,-4002
4630,642,-438,-4002
4631,642,-327,-3924
4632,534,-276,-3924
4633,630,-276,-3969
4634,630,-315,-4128
4635,834,-315,-4128
4636,834,-369,-4194
4637,834,-273,-4194
4638,852,-273,-4263
4639,852,-306,-4224
4640,879,-393,-4224
4641,879,-393,-4323
4642,732,-330,-4323
4643,456,-330,-4329
4644,456,-369,-4329
4645,471,-336,-4329
4646,471,-336,-4365
4647,630,-345,-4365
4648,810,-345,-4404
4649,810,-456,-4284
4650,699,-270,-4284
4651,498,-270,-4203
4652,498,-345,-4203
4653,612,-345,-4050
4654,612,-336,-4035
4655,630,-384,-4035
4656,519,-384,-4119
4657,519,-510,-4155
4658,612,-510,-4155
4659,612,-618,-4104
4660,507,-255,-4104
4661,441,-255,-3882
4662,441,-237,-3678
4663,912,-237,-3678
4664,912,-432,-3807
4665,762,-642,-3807
4666,369,-642,-3894
4667,369,-597,-3909
4668,492,-534,-3909
4669,492,-534,-3837
4670,573,-483,-3837
4671,540,-483,-3834
4672,540,-492,-3972
4673,681,-684,-3972
4674,681,-684,-4089
4675,597,-720,-4089
4676,624,-720,-4065
4677,624,-537,-3942
4678,573,-546,-3942
4679,474,-546,-4023
4680,474,-591,-4023
4681,576,-591,-3984
4682,576,-501,-3972
4683,291,-732,-3972
4684,522,-732,-4128
4685,522,-666,-4113
4686,435,-666,-4113
4687,435,-663,-4029
4688,282,-588,-4029
4689,78,-588,-4059
4690,78,-720,-4038
4691,165,-720,-4038
4692,165,-234,-3849
4693,234,-621,-3849
4694,3,-621,-3984
4695,3,-510,-4035
4696,-99,-588,-4035
4697,-99,-588,-4068
4698,-165,-564,-4068
4699,-117,-564,-4065
4700,-117,-549,-4038
4701,33,-333,-4038
4702,33,-333,-4050
4703,153,-327,-4050
4704,-135,-327,-4044
4705,-135,-384,-4083
4706,-273,-567,-4083
4707,-273,-567,-4065
4708,-219,-609,-4065
4709,-15,-609,-4143
4710,-15,-129,-3987
4711,-75,-420,-3987
4712,-360,-420,-3969
4713,-360,-591,-3969
4714,-477,-591,-4080
4715,-477,-630,-4008
4716,-201,-354,-4008
4717,-276,-354,-3999
4718,-276,-573,-4044
4719,-450,-573,-4044
4720,-450,-408,-4050
4721,-171,-171,-4050
4722,-339,-171,-3939
4723,-339,-324,-3963
4724,-582,-324,-3963
4725,-582,-222,-3924
4726,-1080,-297,-3924
4727,-867,-297,-3942
4728,-867,-207,-4035
4729,-579,-207,-4035
4730,-579,-357,-4164
4731,-618,-504,-4164
4732,-591,-504,-4230
4733,-591,-354,-4341
4734,-669,-36,-4341
4735,-669,-36,-4218
4736,-699,-102,-4218
4737,-615,-102,-4140
4738,-615,-351,-4179
4739,-558,-339,-4179
4740,-753,-339,-4329
4741,-753,-375,-4329
4742,-861,-375,-4284
4743,-861,-279,-4230
4744,-669,-120,-4230
4745,-408,-120,-4140
4746,-408,-90,-4140
4747,-402,-90,-4044
4748,-402,-234,-4029
4749,-684,-177,-4029
4750,-684,-177,-4050
4751,-684,-276,-4050
4752,-405,-276,-4050
4753,-405,-231,-4098
4754,-327,-186,-4098
4755,-282,-186,-3972
4756,-282,-150,-3948
4757,-282,-150,-3948
4758,-282,-153,-3939
4759,-576,-216,-3939
4760,-858,-216,-4074
4761,-858,-399,-4020
4762,-306,-207,-4020
4763,-306,-207,-3978
4764,-30,-69,-3978
4765,-69,-69,-3954
4766,-69,-18,-4023
4767,-60,-156,-4023
4768,-60,-156,-4140
4769,-495,-174,-4140
4770,-732,-174,-4299
4771,-732,-345,-4239
4772,-288,-252,-4239
4773,261,-252,-4074
4774,261,-33,-4074
4775,33,-33,-4164
4776,33,-177,-4158
4777,-402,-186,-4158
4778,-354,-186,-4194
4779,-354,-156,-4179
4780,-255,-156,-4179
4781,-255,-174,-4158
4782,-87,-231,-4158
4783,-36,-231,-4134
4784,-36,-132,-4065
4785,-207,-132,-4065
4786,-207,-54,-4050
4787,-285,-72,-4050
4788,-153,-72,-4014
4789,-153,-84,-4059
4790,-147,-105,-4059
4791,-147,-105,-4098
4792,-87,-204,-4098
4793,-162,-204,-4053
4794,-162,-192,-4170
4795,-204,-129,-4170
4796,-204,-129,-4059
4797,-171,30,-4059
4798,-204,30,-4023
4799,-204,60,-4074
4800,-285,-105,-4074
4801,-285,-105,-4110
4802,-294,-204,-4110
4803,-255,-204,-4239
4804,-255,-183,-4173
4805,27,-111,-4173
4806,-81,-111,-4323
4807,-81,66,-4323
4808,-117,66,-4179
4809,-117,21,-4200
4810,-195,-117,-4200
4811,-78,-117,-4134
4812,-78,-63,-4173
4813,21,-63,-4173
4814,21,-27,-4158
4815,-126,-69,-4158
4816,-132,-69,-4155
4817,-132,-93,-4155
4818,-93,-93,-4155
4819,-93,-87,-4140
4820,-24,-66,-4140
4821,-111,-66,-4098
4822,-111,-117,-4074
4823,-81,-42,-4074
4824,-81,-42,-4140
4825,-156,-24,-4140
4826,-150,-24,-4128
4827,-150,-93,-4119
4828,-36,-105,-4119
4829,-36,-105,-4089
4830,-27,-132,-4089
4831,-18,-132,-4125
4832,-18,-105,-4029
4833,6,-36,-4029
4834,-321,-36,-4095
4835,-321,-78,-4095
4836,-96,-78,-4143
4837,-96,-135,-4158
4838,123,-111,-4158
4839,51,-111,-4170
4840,51,-102,-4170
4841,-45,-102,-4119
4842,-45,-75,-4155
4843,-30,-72,-4155
4844,-129,-72,-4125
4845,-129,-84,-4104
4846,-45,-84,-4104
4847,-45,-99,-4128
4848,-24,-39,-4128
4849,-66,-39,-4038
4850,-66,-90,-4089
4851,-48,-90,-4089
4852,-48,-183,-4119
4853,-57,-117,-4119
4854,-138,-117,-4113
4855,-138,-63,-4053
4856,-111,-105,-4053
4857,-111,-105,-4065
4858,-33,-57,-4065
4859,42,-57,-4068
4860,42,-63,-4095
4861,18,-126,-4095
4862,18,-126,-4029
4863,-120,-114,-4029
4864,-117,-114,-3969
4865,-117,-87,-3978
4866,-84,-87,-3978
4867,-78,-87,-3972
4868,-78,-69,-3972
4869,-42,-69,-3972
4870,-42,-42,-4068
4871,15,-138,-4068
4872,132,-138,-4035
4873,132,-15,-4104
4874,57,-15,-4104
4875,57,-63,-4200
4876,51,-81,-4200
4877,-51,-81,-4203
4878,-51,-27,-4254
4879,-6,-27,-4254
4880,-6,-45,-4275
4881,-99,-108,-4275
4882,-78,-108,-4356
4883,-78,-36,-4314
4884,-117,-6,-4314
4885,-117,-6,-4260
4886,-138,-123,-4260
4887,-135,-123,-4230
4888,-135,-57,-4215
4889,-135,-63,-4215
4890,-135,-63,-4173
4891,-258,-144,-4173
4892,-174,-144,-4134
4893,-174,-21,-3993
4894,-84,-27,-3993
4895,-183,-27,-3993
4896,-183,-120,-3993
4897,-180,-120,-4035
4898,-180,-183,-4053
4899,-183,-132,-4053
4900,-96,-132,-4089
4901,-96,-144,-4104
4902,-216,-144,-4104
4903,-216,24,-4236
4904,-360,-168,-4236
4905,-327,-168,-4515
4906,-327,-246,-5022
4907,-282,-246,-5022
4908,-282,-624,-5649
4909,-201,-360,-5649
4910,-222,-360,-6111
4911,-222,-165,-6663
4912,63,-447,-6663
4913,63,-447,-7008
4914,195,-324,-7008
4915,210,-324,-6888
4916,210,-381,-6687
4917,-69,-900,-6687
4918,-69,-900,-6621
4919,-525,-1161,-6621
4920,-810,-1161,-6558
4921,-810,-1029,-6405
4922,-369,-690,-6405
4923,-369,-690,-6081
4924,-540,-738,-6081
4925,-15,-738,-5664
4926,-15,-996,-5217
4927,-153,-855,-5217
4928,-15,-855,-4710
4929,-15,-1134,-4710
4930,63,-1134,-4239
4931,63,-1299,-3789
4932,129,-1221,-3789
4933,192,-1221,-3483
4934,192,-1644,-3132
4935,147,-1644,-3132
4936,147,-1914,-2874
4937,96,-2163,-2874
4938,897,-2163,-2550
4939,897,-1695,-1656
4940,1038,-1695,-1656
4941,1038,-1887,-1134
4942,1056,-2175,-1134
4943,195,-2175,-894
4944,195,-2436,-774
4945,54,-2322,-774
4946,54,-2322,-387
4947,711,-1908,-387
4948,801,-1908,273
4949,801,-1818,642
4950,657,-1923,642
4951,657,-1923,912
4952,699,-1920,912
4953,402,-1920,1137
4954,402,-1803,1413
4955,540,-1620,1413
4956,540,-1620,1614
4957,768,-1311,1614
4958,777,-1311,1893
4959,777,-1545,1899
4960,456,-1809,1899
4961,93,-1809,1935
4962,93,-852,1935
4963,-153,-852,2691
4964,-153,-270,3249
4965,48,-72,3249
4966,18,-72,3363
4967,18,-75,3384
4968,72,-75,3384
4969,72,-27,3348
4970,48,39,3348
4971,114,39,3354
4972,114,78,3420
4973,-291,78,3420
4974,-291,-54,3288
4975,-309,-12,3288
4976,-264,-12,3249
4977,-264,462,3348
4978,393,891,3348
4979,393,891,3363
4980,234,1161,3363
4981,-279,1161,3435
4982,-279,1449,3759
4983,-387,2100,3759
4984,-387,2100,4227
4985,-504,3144,4227
4986,0,3144,4983
4987,0,4566,6036
4988,123,5919,6036
4989,-300,5919,7251
4990,-300,6735,7251
4991,-126,6735,7872
4992,-126,6984,7788
4993,297,6432,7788
4994,156,6432,6894
4995,156,5124,5892
4996,-114,5124,5892
4997,-114,4767,5244
4998,270,3441,5244
4999,510,3441,4509
5000,510,3015,4338
5001,582,3015,4338
5002,582,2586,3981
5003,648,2007,3981
5004,771,2007,3513
5005,771,1491,3174
5006,414,954,3174
5007,414,954,3039
5008,537,984,3039
5009,633,984,3159
5010,633,942,3072
5011,681,525,3072
5012,681,525,2688
5013,597,-66,2688
5014,819,-66,2355
5015,819,-333,2205
5016,933,-495,2205
5017,660,-495,1929
5018,660,-765,1929
5019,285,-765,1548
5020,285,-1056,1236
5021,225,-1629,1236
5022,318,-1629,891
5023,318,-1962,891
5024,648,-1962,609
5025,648,-1926,255
5026,699,-1911,255
5027,534,-1911,-267
5028,534,-2145,-729
5029,402,-2145,-729
5030,402,-2292,-1119
5031,210,-2235,-1119
5032,252,-2235,-1386
5033,252,-2334,-1647
5034,621,-2334,-1647
5035,621,-2250,-1938
5036,798,-2112,-1938
5037,1050,-2112,-2259
5038,1050,-2418,-2700
5039,570,-2544,-2700
5040,570,-2544,-3042
5041,456,-2511,-3042
5042,630,-2511,-3081
5043,630,-2070,-3081
5044,537,-1440,-3081
5045,537,-1440,-3312
5046,225,-1221,-3312
5047,-603,-1221,-3603
5048,-603,-1101,-4035
5049,-1089,-918,-4035
5050,-426,-918,-4410
5051,-426,-942,-4410
5052,15,-942,-4686
5053,15,-813,-4992
5054,-150,-522,-4992
5055,-543,-522,-5544
5056,-543,-312,-5670
5057,-558,-312,-5670
5058,-558,-384,-5808
5059,-33,-117,-5808
5060,336,-117,-5523
5061,336,-366,-5583
5062,-48,-366,-5583
5063,-48,-759,-5223
5064,-747,-291,-5223
5065,-1251,-291,-4752
5066,-1251,-36,-4293
5067,-1317,0,-4293
5068,-1317,0,-4260
5069,-717,6,-4260
5070,-225,6,-4080
5071,-225,186,-3909
5072,-120,312,-3909
5073,-120,312,-3978
5074,-681,222,-3978
5075,-768,222,-4134
5076,-768,333,-4344
5077,-546,510,-4344
5078,-447,510,-4671
5079,-447,816,-4671
5080,-306,816,-4926
5081,-306,723,-5427
5082,-339,393,-5427
5083,-393,393,-5814
5084,-393,330,-5886
5085,-150,330,-5886
5086,-150,735,-5859
5087,-60,555,-5859
5088,-255,555,-5850
5089,-255,648,-5598
5090,-264,648,-5598
5091,-264,696,-5382
5092,-195,588,-5382
5093,-51,588,-5172
5094,-51,537,-4800
5095,174,459,-4800
5096,174,459,-4479
5097,129,552,-4479
5098,-198,552,-4191
5099,-198,357,-3999
5100,-339,345,-3999
5101,-339,345,-3738
5102,-198,375,-3738
5103,39,375,-3507
5104,39,492,-3378
5105,102,294,-3378
5106,321,294,-3348
5107,321,108,-3348
5108,27,108,-3432
5109,27,39,-3387
5110,-45,423,-3387
5111,-30,423,-3363
5112,-30,216,-3462
5113,162,216,-3462
5114,162,66,-3597
5115,354,180,-3597
5116,420,180,-3804
5117,420,207,-3924
5118,153,207,-3924
5119,153,267,-4164
5120,72,315,-4164
5121,33,315,-4194
5122,33,276,-4215
5123,198,327,-4215
5124,198,327,-4224
5125,183,264,-4224
5126,126,264,-4371
5127,126,312,-4416
5128,183,279,-4416
5129,183,279,-4587
5130,75,342,-4587
5131,75,342,-4446
5132,75,360,-4401
5133,51,381,-4401
5134,120,381,-4344
5135,120,366,-4344
5136,84,366,-4221
5137,84,360,-4170
5138,3,276,-4170
5139,15,276,-4104
5140,15,294,-4104
5141,144,294,-4053
5142,144,366,-3939
5143,267,417,-3939
5144,213,417,-3870
5145,213,396,-3894
5146,87,396,-3894
5147,87,342,-3954
5148,120,381,-3954
5149,162,381,-3963
5150,162,378,-4005
5151,141,378,-4005
5152,141,498,-4089
5153,-12,525,-4089
5154,21,525,-4143
5155,21,408,-4254
5156,42,255,-4254
5157,42,255,-4335
5158,-75,261,-4335
5159,-51,261,-4359
5160,-51,369,-4311
5161,60,411,-4311
5162,60,411,-4320
5163,39,264,-4320
5164,60,264,-4296
5165,60,234,-4260
5166,252,240,-4260
5167,348,240,-4164
5168,348,231,-4050
5169,330,231,-4050
5170,330,270,-4023
5171,225,159,-4023
5172,276,159,-3924
5173,276,189,-3873
5174,333,189,-3873
5175,333,120,-3933
5176,300,177,-3933
5177,303,177,-3909
5178,303,231,-3837
5179,315,246,-3837
5180,315,246,-3837
5181,456,240,-3837
5182,570,240,-3852
5183,570,285,-4053
5184,525,420,-4053
5185,525,420,-4038
5186,303,357,-4038
5187,261,357,-4194
5188,261,324,-4284
5189,180,228,-4284
5190,216,228,-4326
5191,216,258,-4326
5192,78,258,-4374
5193,78,318,-4305
5194,-117,279,-4305
5195,0,279,-4311
5196,0,282,-4299
5197,144,282,-4299
5198,144,327,-4221
5199,24,246,-4221
5200,-162,246,-4170
5201,-162,120,-4050
5202,-198,132,-4050
5203,-198,132,-3903
5204,-120,138,-3903
5205,63,138,-3843
5206,63,72,-3768
5207,174,78,-3768
5208,174,78,-3783
5209,177,138,-3783
5210,138,138,-3870
5211,138,195,-3762
5212,213,375,-3762
5213,372,375,-3828
5214,372,474,-3828
5215,300,474,-3939
5216,300,513,-4074
5217,189,282,-4074
5218,129,282,-4200
5219,129,-72,-4260
5220,144,-72,-4260
5221,144,-15,-4344
5222,360,105,-4344
5223,390,105,-4149
5224,390,300,-4029
5225,183,300,-4029
5226,183,528,-3933
5227,-45,726,-3933
5228,207,726,-3918
5229,207,741,-4128
5230,657,360,-4128
5231,657,360,-4266
5232,870,189,-4266
5233,621,189,-4329
5234,621,165,-4350
5235,-78,192,-4350
5236,-78,192,-4284
5237,-201,84,-4284
5238,231,84,-4329
5239,231,315,-4341
5240,741,81,-4341
5241,741,81,-4386
5242,861,57,-4386
5243,675,57,-4299
5244,675,141,-4185
5245,312,345,-4185
5246,303,345,-4005
5247,303,477,-4005
5248,417,477,-3930
5249,417,408,-3879
5250,528,267,-3879
5251,402,267,-3963
5252,402,267,-3963
5253,282,267,-3885
5254,282,384,-3963
5255,408,237,-3963
5256,435,237,-3969
5257,435,321,-3948
5258,372,321,-3948
5259,372,396,-4005
5260,201,429,-4005
5261,39,429,-4173
5262,39,390,-4236
5263,216,444,-4236
5264,216,444,-4455
5265,516,495,-4455
5266,654,495,-4521
5267,654,363,-4755
5268,588,147,-4755
5269,588,147,-4785
5270,405,225,-4785
5271,372,225,-4740
5272,372,288,-4605
5273,246,345,-4605
5274,246,345,-4500
5275,222,291,-4500
5276,438,291,-4371
5277,438,294,-4221
5278,606,369,-4221
5279,558,369,-4053
5280,558,351,-4053
5281,333,351,-3948
5282,333,333,-3732
5283,228,450,-3732
5284,363,450,-3687
5285,363,168,-3717
5286,459,168,-3717
5287,459,138,-3672
5288,510,288,-3672
5289,690,288,-3672
5290,690,147,-3762
5291,597,147,-3762
5292,597,108,-3798
5293,648,123,-3798
5294,663,123,-3933
5295,663,114,-3918
5296,510,123,-3918
5297,510,123,-3978
5298,642,84,-3978
5299,747,84,-4113
5300,747,72,-4119
5301,606,9,-4119
5302,417,9,-4053
5303,417,117,-4053
5304,438,117,-4128
5305,438,156,-4095
5306,537,3,-4095
5307,417,3,-4158
5308,417,33,-4134
5309,270,33,-4134
5310,270,66,-3984
5311,231,135,-3984
5312,360,135,-4095
5313,360,36,-4035
5314,408,36,-4035
5315,408,90,-4023
5316,294,111,-4023
5317,345,111,-4044
5318,345,75,-4083
5319,636,51,-4083
5320,636,51,-4044
5321,663,57,-4044
5322,525,57,-4065
5323,525,9,-4059
5324,417,129,-4059
5325,417,129,-4044
5326,399,153,-4044
5327,519,153,-4020
5328,519,186,-4035
5329,570,105,-4035
5330,522,105,-3993
5331,522,87,-3993
5332,453,87,-3993
5333,453,84,-4035
5334,573,33,-4035
5335,576,33,-3963
5336,576,135,-4044
5337,534,135,-4044
5338,534,147,-4014
5339,621,87,-4014
5340,624,87,-4128
5341,624,51,-4134
5342,558,51,-4134
5343,558,108,-4080
5344,522,135,-4080
5345,636,135,-4023
5346,636,177,-4098
5347,645,123,-4098
5348,645,123,-4140
5349,690,129,-4140
5350,639,129,-4083
5351,639,168,-4113
5352,519,129,-4113
5353,519,129,-4113
5354,372,120,-4113
5355,459,120,-4155
5356,459,129,-4119
5357,570,159,-4119
5358,543,159,-4119
5359,543,189,-4119
5360,429,189,-4143
5361,429,162,-4089
5362,399,171,-4089
5363,366,171,-4110
5364,366,93,-4155
5365,507,93,-4155
5366,507,135,-4215
5367,486,216,-4215
5368,405,216,-4113
5369,405,243,-4128
5370,267,243,-4128
5371,267,156,-4134
5372,297,192,-4134
5373,420,192,-4095
5374,420,198,-4068
5375,369,165,-4068
5376,369,165,-4089
5377,396,231,-4089
5378,414,231,-4158
5379,414,183,-4119
5380,459,171,-4119
5381,459,171,-4119
5382,504,93,-4119
5383,588,93,-4134
5384,588,102,-4149
5385,441,141,-4149
5386,372,141,-4158
5387,372,138,-4158
5388,438,138,-4140
5389,438,159,-4053
5390,552,138,-4053
5391,675,138,-4125
5392,675,207,-4149
5393,534,207,-4149
5394,534,180,-4128
5395,414,192,-4128
5396,450,192,-4044
5397,450,171,-4023
5398,534,171,-4023
5399,534,144,-4089
5400,486,132,-4089
5401,450,132,-4128
5402,450,183,-4104
5403,429,228,-4104
5404,429,228,-4065
5405,543,153,-4065
5406,507,153,-4125
5407,507,159,-4080
5408,417,144,-4080
5409,417,144,-4068
5410,366,96,-4068
5411,507,96,-4170
5412,507,33,-4230
5413,723,15,-4230
5414,699,15,-4434
5415,699,81,-4434
5416,537,81,-4455
5417,537,177,-4572
5418,468,288,-4572
5419,618,288,-4671
5420,618,84,-4827
5421,708,84,-4827
5422,708,-327,-4875
5423,660,-612,-4875
5424,507,-612,-5142
5425,507,-495,-5163
5426,591,-495,-5163
5427,591,-333,-5187
5428,879,-126,-5187
5429,768,-126,-5166
5430,768,-231,-5118
5431,516,-612,-5118
5432,516,-612,-5163
5433,705,-789,-5163
5434,867,-789,-5319
5435,867,-909,-5307
5436,1032,-1092,-5307
5437,1032,-1092,-5292
5438,834,-1245,-5292
5439,696,-1245,-5307
5440,696,-1395,-5157
5441,756,-1395,-5157
5442,948,-1395,-4938
5443,948,-1308,-4938
5444,945,-1308,-4716
5445,945,-1458,-4455
5446,912,-1722,-4455
5447,1302,-1722,-4344
5448,1302,-2031,-4005
5449,1470,-2031,-4005
5450,1470,-1956,-3792
5451,1191,-2052,-3792
5452,1131,-2052,-3417
5453,1131,-2067,-2910
5454,999,-2067,-2910
5455,999,-1926,-2394
5456,999,-2394,-2394
5457,1206,-2394,-2187
5458,1206,-2751,-2049
5459,1380,-2538,-2049
5460,1380,-2538,-1677
5461,1245,-2163,-1677
5462,1110,-2163,-1170
5463,1110,-2637,-969
5464,1113,-3105,-969
5465,1113,-3105,-840
5466,1155,-3126,-840
5467,1113,-3126,-669
5468,1113,-2925,-384
5469,1431,-2871,-384
5470,1482,-2871,-138
5471,1482,-3258,-138
5472,1338,-3258,-87
5473,1338,-3303,114
5474,1140,-3288,114
5475,1281,-3288,153
5476,1281,-3033,519
5477,1443,-3033,519
5478,1443,-2850,801
5479,1431,-3006,801
5480,1395,-3006,735
5481,1395,-3006,855
5482,1281,-3006,855
5483,1281,-2841,1227
5484,1131,-2700,1227
5485,1389,-2700,1458
5486,1389,-2757,1638
5487,1602,-2364,1638
5488,1602,-2364,1995
5489,1455,-1878,1995
5490,1329,-1878,2316
5491,1329,-1983,2427
5492,1254,-2061,2427
5493,1137,-2061,2466
5494,1137,-2025,2466
5495,1245,-2025,2703
5496,1245,-1755,2928
5497,1353,-1494,2928
5498,1206,-1494,3315
5499,1206,-1422,3405
5500,1023,-1422,3405
5501,1023,-1281,3504
5502,828,-1287,3504
5503,603,-1287,3483
5504,603,-1263,3489
5505,768,-1263,3489
5506,768,-1251,3420
5507,933,-1221,3420
5508,1080,-1221,3651
5509,1080,-1374,3513
5510,924,-1617,3513
5511,924,-1617,3243
5512,990,-1560,3243
5513,957,-1560,3294
5514,957,-1440,3285
5515,1023,-1263,3285
5516,903,-1263,3363
5517,903,-1230,3363
5518,684,-1230,3363
5519,684,-1146,3189
5520,564,-1050,3189
5521,582,-1050,3204
5522,582,-864,3183
5523,645,-864,3183
5524,645,-738,3144
5525,666,-573,3144
5526,450,-573,3213
5527,450,-393,3348
5528,282,-393,3348
5529,282,-114,3480
5530,186,186,3480
5531,36,186,3504
5532,36,522,3759
5533,-150,819,3759
5534,-150,819,3876
5535,-306,1089,3876
5536,-558,1089,4041
5537,-558,1443,4302
5538,-573,1926,4302
5539,-732,1926,4737
5540,-732,2550,4737
5541,-996,2550,5274
5542,-996,3075,5661
5543,-1143,3474,5661
5544,-1446,3474,6063
5545,-1446,3660,6168
5546,-1635,3660,6168
5547,-1635,3639,6207
5548,-1590,3540,6207
5549,-1461,3540,6006
5550,-1461,3129,5607
5551,-1221,3129,5607
5552,-1221,2436,5034
5553,-1239,2043,5034
5554,-1017,2043,4845
5555,-1017,2019,4953
5556,-516,1908,4953
5557,-516,1908,4815
5558,-471,1275,4815
5559,-525,1275,4206
5560,-525,723,3741
5561,-195,606,3741
5562,-195,606,3645
5563,-33,618,3645
5564,-30,618,3810
5565,-30,492,3810
5566,60,177,3810
5567,90,177,3645
5568,90,-285,3525
5569,300,-285,3525
5570,300,-474,3363
5571,303,-645,3363
5572,279,-645,3183
5573,279,-828,3225
5574,369,-828,3225
5575,369,-768,3369
5576,576,-804,3369
5577,435,-804,3270
5578,435,-1128,3012
5579,837,-1464,3012
5580,837,-1464,2652
5581,777,-1623,2652
5582,747,-1623,2475
5583,747,-2067,2241
5584,630,-2040,2241
5585,630,-2040,2130
5586,855,-2142,2130
5587,1002,-2142,1863
5588,1002,-2331,1488
5589,954,-2586,1488
5590,798,-2586,1158
5591,798,-2748,1158
5592,726,-2748,852
5593,726,-2928,510
5594,1026,-3444,510
5595,1335,-3444,273
5596,1335,-3483,189
5597,1269,-3483,189
5598,1269,-3378,-36
5599,1293,-3429,-36
5600,1422,-3429,-186
5601,1422,-3180,-273
5602,1368,-3180,-273
5603,1368,-3258,-522
5604,1317,-3585,-522
5605,1038,-3585,-735
5606,1038,-3510,-804
5607,987,-3285,-804
5608,987,-3285,-1071
5609,1191,-2997,-1071
5610,1221,-2997,-1101
5611,1221,-2910,-1452
5612,1107,-2898,-1452
5613,1107,-2898,-1758
5614,768,-2871,-1758
5615,828,-2871,-2223
5616,828,-2790,-2580
5617,1143,-2745,-2580
5618,1359,-2745,-2805
5619,1359,-2802,-2805
5620,1164,-2802,-2910
5621,1164,-2721,-3042
5622,525,-2562,-3042
5623,351,-2562,-3111
5624,351,-2358,-3111
5625,555,-2358,-3276
5626,555,-2388,-3222
5627,777,-2469,-3222
5628,705,-2469,-3348
5629,705,-1968,-3462
5630,510,-1968,-3462
5631,510,-1950,-3663
5632,279,-1869,-3663
5633,300,-1869,-3477
5634,300,-1728,-3573
5635,420,-1728,-3573
5636,420,-1296,-3663
5637,498,-1203,-3663
5638,459,-1203,-3732
5639,459,-1383,-3999
5640,279,-1389,-3999
5641,279,-1389,-4023
5642,51,-1026,-4023
5643,3,-1026,-4155
5644,3,-852,-4191
5645,297,-747,-4191
5646,297,-747,-4530
5647,318,-969,-4530
5648,303,-969,-4737
5649,303,-654,-4542
5650,87,-543,-4542
5651,-36,-543,-4605
5652,-36,-501,-4605
5653,84,-501,-4785
5654,84,-369,-4905
5655,180,-300,-4905
5656,270,-300,-4800
5657,270,-192,-4740
5658,207,-192,-4740
5659,207,-342,-4761
5660,180,-312,-4761
5661,126,-312,-4662
5662,126,-255,-4569
5663,39,-255,-4569
5664,39,-225,-4464
5665,-30,-234,-4464
5666,21,-234,-4275
5667,21,129,-3918
5668,210,225,-3918
5669,210,225,-3888
5670,141,15,-3888
5671,132,15,-4098
5672,132,-366,-4275
5673,90,-321,-4275
5674,90,-321,-4341
5675,138,270,-4341
5676,330,270,-4329
5677,330,528,-4350
5678,471,282,-4350
5679,285,282,-4551
5680,285,117,-4551
5681,591,117,-4665
5682,591,36,-4752
5683,705,12,-4752
5684,429,12,-4821
5685,429,126,-4710
5686,372,126,-4710
5687,372,282,-4596
5688,405,336,-4596
5689,420,336,-4389
5690,420,165,-4266
5691,432,165,-4266
5692,432,69,-4149
5693,483,39,-4149
5694,360,39,-4119
5695,360,132,-4053
5696,417,411,-4053
5697,417,411,-3933
5698,378,333,-3933
5699,483,333,-3993
5700,483,75,-4113
5701,303,-6,-4113
5702,405,-6,-4158
5703,405,108,-4158
5704,519,108,-4134
5705,519,384,-4074
5706,498,381,-4074
5707,336,381,-4044
5708,336,156,-4158
5709,405,156,-4158
5710,405,108,-4260
5711,468,105,-4260
5712,447,105,-4236
5713,447,159,-4164
5714,366,159,-4164
5715,366,306,-4125
5716,366,402,-4125
5717,402,402,-4068
5718,402,132,-4140
5719,465,96,-4140
5720,465,96,-4224
5721,405,153,-4224
5722,363,153,-4158
5723,363,198,-4113
5724,438,279,-4113
5725,453,279,-3963
5726,453,261,-3963
5727,414,261,-4038
5728,414,180,-4134
5729,423,213,-4134
5730,396,213,-4080
5731,396,249,-4080
5732,354,249,-3999
5733,354,162,-4095
5734,507,225,-4095
5735,450,225,-4035
5736,450,267,-4074
5737,390,267,-4074
5738,390,231,-4023
5739,450,372,-4023
5740,441,372,-4065
5741,441,144,-4104
5742,417,144,-4104
5743,417,192,-4113
5744,396,198,-4113
5745,396,198,-4068
5746,396,285,-4065
5747,540,378,-4065
5748,540,378,-4095
5749,561,219,-4095
5750,645,219,-4083
5751,645,192,-4098
5752,663,234,-4098
5753,663,234,-4179
5754,534,288,-4179
5755,447,288,-4194
5756,447,240,-4200
5757,588,264,-4200
5758,666,264,-4215
5759,666,360,-4215
5760,675,360,-4215
5761,675,243,-4173
5762,525,249,-4173
5763,534,249,-4098
5764,534,228,-4164
5765,543,228,-4164
5766,543,246,-4164
5767,588,258,-4164
5768,627,258,-4113
5769,627,207,-4050
5770,507,207,-4050
5771,507,291,-3945
5772,405,243,-3945
5773,459,243,-3969
5774,459,222,-3984
5775,648,231,-3984
5776,648,231,-3963
5777,585,219,-3963
5778,498,219,-3990
5779,498,219,-3984
5780,387,111,-3984
5781,387,111,-3993
5782,489,276,-3993
5783,654,276,-4020
5784,654,174,-4068
5785,603,291,-4068
5786,516,291,-4119
5787,516,246,-4119
5788,474,246,-4143
5789,474,147,-4125
5790,417,240,-4125
5791,474,240,-4185
5792,474,306,-4185
5793,543,306,-4155
5794,543,273,-4128
5795,618,222,-4128
5796,540,222,-4143
5797,540,210,-4155
5798,507,210,-4155
5799,507,237,-4140
5800,543,204,-4140
5801,480,204,-4089
5802,480,216,-4113
5803,519,309,-4113
5804,519,309,-4095
5805,525,273,-4095
5806,489,273,-4035
5807,489,81,-4020
5808,585,234,-4020
5809,585,234,-4053
5810,558,279,-4053
5811,489,279,-3975
5812,489,279,-4023
5813,567,255,-4023
5814,576,255,-4065
5815,576,189,-4065
5816,606,189,-4044
5817,606,144,-4113
5818,624,153,-4113
5819,558,153,-4065
5820,558,237,-4038
5821,474,237,-4038
5822,474,324,-4020
5823,471,231,-4020
5824,540,231,-4110
5825,540,162,-4155
5826,609,162,-4155
5827,609,189,-4095
5828,555,192,-4095
5829,480,192,-4134
5830,480,246,-4005
5831,483,282,-4005
5832,483,282,-4098
5833,570,285,-4098
5834,579,285,-4074
5835,579,210,-4053
5836,579,216,-4053
5837,504,216,-4029
5838,504,189,-4029
5839,441,189,-4083
5840,441,177,-4113
5841,474,192,-4113
5842,606,192,-4053
5843,606,249,-4140
5844,537,249,-4140
5845,537,243,-4023
5846,447,261,-4023
5847,498,261,-4080
5848,498,195,-4149
5849,504,195,-4149
5850,504,249,-4098
5851,516,147,-4098
5852,492,147,-4128
5853,492,309,-4053
5854,435,243,-4053
5855,435,243,-4053
5856,552,264,-4053
5857,555,264,-4029
5858,555,243,-4068
5859,519,210,-4068
5860,519,210,-4119
5861,537,273,-4119
5862,456,273,-4083
5863,456,291,-4113
5864,516,255,-4113
5865,630,255,-4080
5866,630,243,-4080
5867,627,243,-4119
5868,627,249,-4065
5869,549,282,-4065
5870,468,282,-4179
5871,468,249,-4125
5872,576,249,-4125
5873,576,306,-4200
5874,522,282,-4200
5875,414,282,-4098
5876,414,222,-4065
5877,363,222,-4065
5878,363,246,-4095
5879,510,300,-4095
5880,465,300,-4065
5881,465,255,-4080
5882,387,276,-4080
5883,387,276,-4053
5884,522,291,-4053
5885,474,291,-4005
5886,474,231,-4053
5887,486,222,-4053
5888,486,222,-4113
5889,543,246,-4113
5890,534,246,-4095
5891,534,237,-4098
5892,453,282,-4098
5893,453,282,-4110
5894,498,309,-4110
5895,630,309,-4008
5896,630,273,-4098
5897,507,270,-4098
5898,474,270,-4065
5899,474,282,-4065
5900,543,282,-4083
5901,543,219,-4098
5902,621,246,-4098
5903,597,246,-4059
5904,597,306,-4044
5905,522,306,-4044
5906,522,297,-4068
5907,486,234,-4068
5908,540,234,-4104
5909,540,258,-4098
5910,579,258,-4098
5911,579,219,-4095
5912,501,300,-4095
5913,552,300,-4065
5914,552,291,-4083
5915,558,342,-4083
5916,558,342,-4059
5917,549,339,-4059
5918,576,339,-4035
5919,576,204,-4125
5920,573,240,-4125
5921,486,240,-4158
5922,486,249,-4158
5923,408,249,-4140
5924,408,225,-4164
5925,474,348,-4164
5926,603,348,-4065
5927,603,297,-4065
5928,543,297,-4050
5929,543,291,-4113
5930,471,171,-4113
5931,414,171,-4128
5932,414,255,-4098
5933,492,255,-4098
5934,492,291,-4035
5935,498,267,-4035
5936,447,267,-4023
5937,447,315,-3993
5938,492,315,-3993
5939,492,300,-3999
5940,609,222,-3999
5941,603,222,-4089
5942,603,234,-4140
5943,570,267,-4140
5944,570,267,-4095
5945,459,315,-4095
5946,285,315,-4080
5947,285,288,-4098
5948,456,270,-4098
5949,456,270,-4059
5950,594,288,-4059
5951,618,288,-4113
5952,618,267,-4143
5953,492,288,-4143
5954,522,288,-4125
5955,522,306,-4125
5956,579,306,-4044
5957,579,225,-4110
5958,621,234,-4110
5959,603,234,-4179
5960,603,234,-4128
5961,555,234,-4128
5962,555,246,-4068
5963,501,309,-4068
5964,528,309,-4110
5965,528,267,-4083
5966,504,246,-4083
5967,504,246,-4149
5968,501,360,-4149
5969,360,360,-4284
5970,360,333,-4692
5971,456,93,-4692
5972,456,93,-4812
5973,540,-9,-4812
5974,570,-9,-4905
5975,570,246,-5028
5976,282,276,-5028
5977,399,276,-5184
5978,399,261,-5184
5979,585,261,-5349
5980,585,117,-5628
5981,699,-21,-5628
5982,705,-21,-5775
5983,705,-294,-5844
5984,621,-294,-5844
5985,621,-168,-5640
5986,696,-150,-5640
5987,453,-150,-5745
5988,453,21,-5619
5989,405,21,-5619
5990,405,72,-5142
5991,429,-387,-5142
5992,216,-387,-4935
5993,216,-699,-4812
5994,108,-855,-4812
5995,108,-855,-4479
5996,369,-573,-4479
5997,654,-573,-4002
5998,654,-570,-3648
5999,660,-831,-3648
6000,465,-831,-3492
6001,465,-1389,-3492
6002,279,-1389,-3507
6003,279,-1680,-3492
6004,189,-2022,-3492
6005,570,-2022,-3393
6006,570,-2316,-3273
6007,825,-2316,-3273
6008,825,-2118,-3117
6009,816,-1971,-3117
6010,540,-1971,-2901
6011,540,-2103,-2679
6012,402,-2103,-2679
6013,402,-2646,-2649
6014,453,-3081,-2649
6015,642,-3081,-2700
6016,642,-3030,-2610
6017,867,-3021,-2610
6018,867,-3021,-2298
6019,939,-3123,-2298
6020,714,-3123,-2073
6021,714,-3105,-1782
6022,663,-3135,-1782
6023,804,-3135,-1467
6024,804,-2793,-1467
6025,849,-2793,-900
6026,849,-2613,-342
6027,825,-2754,-342
6028,882,-2754,33
6029,882,-3180,198
6030,1068,-3180,198
6031,1068,-3186,336
6032,960,-3246,336
6033,1116,-3246,549
6034,1116,-3153,666
6035,1251,-3153,666
6036,1251,-3036,837
6037,1137,-2853,837
6038,645,-2853,1146
6039,645,-3021,1206
6040,717,-3186,1206
6041,717,-3186,1422
6042,1233,-3114,1422
6043,1311,-3114,1413
6044,1311,-2898,1623
6045,1167,-2685,1623
6046,1167,-2685,1869
6047,1218,-2583,1869
6048,999,-2583,2016
6049,999,-2637,2034
6050,966,-2736,2034
6051,987,-2736,1860
6052,987,-2421,1860
6053,1233,-2421,2130
6054,1233,-1911,2505
6055,1107,-1887,2505
6056,990,-1887,2562
6057,990,-1920,2583
6058,1080,-1920,2583
6059,1080,-1746,2796
6060,960,-1350,2796
6061,771,-1350,3084
6062,771,-1071,3243
6063,747,-1071,3243
6064,747,-1026,3285
6065,657,-990,3285
6066,633,-990,3210
6067,633,-732,3399
6068,699,-477,3399
6069,699,-477,3486
6070,588,-558,3486
6071,456,-558,3360
6072,456,-321,3480
6073,465,-6,3480
6074,450,-6,3609
6075,450,291,3609
6076,444,291,3726
6077,444,435,3816
6078,228,918,3816
6079,210,918,3975
6080,210,834,3819
6081,201,834,3819
6082,201,1098,3966
6083,-168,1467,3966
6084,-321,1467,4353
6085,-321,1887,4662
6086,-360,1887,4662
6087,-360,2328,5070
6088,-522,2751,5070
6089,-801,2751,5409
6090,-801,2934,5661
6091,-1182,3198,5661
6092,-1182,3198,5976
6093,-1488,3603,5976
6094,-1461,3603,6312
6095,-1461,3687,6267
6096,-1422,3492,6267
6097,-1422,3492,5952
6098,-1410,3174,5952
6099,-1194,3174,5547
6100,-1194,2844,5259
6101,-945,2370,5259
6102,-804,2370,4998
6103,-804,1941,4998
6104,-714,1941,4734
6105,-714,1524,4443
6106,-582,1137,4443
6107,-573,1137,4125
6108,-573,915,3945
6109,-402,915,3945
6110,-402,711,3726
6111,-231,495,3726
6112,-81,495,3669
6113,-81,285,3576
6114,-6,285,3576
6115,-6,-48,3381
6116,39,-396,3381
6117,-75,-396,3195
6118,-75,-555,3138
6119,345,-624,3138
6120,345,-624,3027
6121,432,-1005,3027
6122,351,-1005,2772
6123,351,-1152,2631
6124,513,-1395,2631
6125,513,-1395,2583
6126,714,-1599,2583
6127,501,-1599,2250
6128,501,-2016,2001
6129,414,-2193,2001
6130,693,-2193,1689
6131,693,-2343,1689
6132,882,-2343,1578
6133,882,-2481,1248
6134,909,-2568,1248
6135,1107,-2568,1008
6136,1107,-2553,651
6137,993,-2553,651
6138,993,-2910,336
6139,903,-3168,336
6140,756,-3168,-36
6141,756,-3480,-387
6142,612,-3480,-387
6143,612,-3510,-573
6144,591,-3360,-573
6145,813,-3360,-738
6146,813,-3111,-675
6147,933,-3009,-675
6148,933,-3009,-1011
6149,999,-2910,-1011
6150,711,-2910,-1401
6151,711,-2769,-1842
6152,333,-2844,-1842
6153,399,-2844,-2400
6154,399,-3321,-2400
6155,726,-3321,-2691
6156,726,-3822,-2799
6157,1023,-3588,-2799
6158,1035,-3588,-2721
6159,1035,-2997,-2634
6160,915,-2997,-2634
6161,915,-2532,-2745
6162,429,-2298,-2745
6163,423,-2298,-2841
6164,423,-2298,-2871
6165,549,-2298,-2871
6166,549,-2463,-3015
6167,321,-1995,-3015
6168,72,-1995,-3357
6169,72,-1581,-3639
6170,312,-1551,-3639
6171,312,-1551,-3759
6172,678,-2166,-3759
6173,828,-2166,-4035
6174,828,-2055,-3999
6175,468,-1521,-3999
