sequence,AccelerometerX,AccelerometerY,AccelerometerZ
0,990,60,3900
1,990,-60,3966
2,783,-108,3966
3,783,-108,4236
4,786,399,4236
5,1323,399,4203
6,1323,270,4086
7,1443,339,4086
8,1638,339,4326
9,1638,243,4326
10,1641,243,4467
11,1641,-318,4359
12,1974,-468,4359
13,1770,-468,4353
14,1770,105,4845
15,1797,105,4845
16,1797,288,4803
17,966,105,4803
18,882,105,5211
19,882,21,5607
20,252,21,5607
21,252,615,5802
22,63,177,5802
23,150,177,5472
24,150,-306,4839
25,339,-213,4839
26,339,-213,4293
27,495,798,4293
28,-45,798,4092
29,-45,1551,4743
30,-108,1116,4743
31,-576,1116,4824
32,-576,720,4824
33,-957,720,4548
34,-957,-144,3891
35,-1254,-378,3891
36,-1083,-378,3318
37,-1083,225,3213
38,-816,225,3213
39,-816,879,3438
40,-120,549,3438
41,-249,549,3855
42,-249,87,3951
43,-678,60,3951
44,-678,60,3945
45,-1551,153,3945
46,-1581,153,3630
47,-1581,237,3690
48,-1134,24,3690
49,-966,24,3519
50,-966,183,3519
51,-486,183,3435
52,-486,354,3258
53,-411,675,3258
54,-423,675,3285
55,-423,930,3288
56,-309,930,3288
57,-309,1143,3606
58,330,873,3606
59,126,873,3669
60,126,357,3609
61,-285,357,3609
62,-285,225,3609
63,-210,477,3609
64,-198,477,3705
65,-198,549,3765
66,-396,321,3765
67,-396,321,3780
68,-573,111,3780
69,-336,111,4035
70,-336,282,4050
71,-423,627,4050
72,-693,627,4167
73,-693,435,4167
74,-771,435,4242
75,-771,159,4527
76,-747,204,4527
77,-924,204,4788
78,-924,156,4923
79,-1272,156,4923
80,-1272,309,5100
81,-1386,360,5100
82,-1065,360,5295
83,-1065,246,5361
84,-954,30,5361
85,-954,30,5349
86,-807,-129,5349
87,-624,-129,5532
88,-624,96,5520
89,-372,216,5520
90,-93,216,5460
91,-93,237,5460
92,48,237,5472
93,48,-111,5550
94,474,108,5550
95,795,108,5475
96,795,-21,5412
97,828,-21,5412
98,828,-57,5385
99,426,51,5385
100,249,51,5271
101,249,15,5073
102,201,-264,5073
103,201,-264,4845
104,417,-264,4845
105,540,-264,4704
106,540,-72,4518
107,588,180,4518
108,783,180,4281
109,783,165,4281
110,852,165,4110
111,852,-45,3816
112,834,-144,3816
113,750,-144,3525
114,750,-39,3333
115,903,-39,3333
116,903,39,3087
117,1128,-12,3087
118,1245,-12,3018
119,1245,-141,2697
120,1389,-324,2697
121,1389,-324,2427
122,1572,-237,2427
123,1908,-237,2091
124,1908,-168,1845
125,2253,-138,1845
126,2199,-138,1560
127,2199,-159,1560
128,2415,-159,1299
129,2415,-312,1026
130,2817,-201,1026
131,3105,-201,852
132,3105,-201,597
133,3000,-201,597
134,3000,-222,159
135,2469,-279,159
136,2505,-279,33
137,2505,-291,-75
138,2967,3,-75
139,2967,3,-246
140,3351,-141,-246
141,3552,-141,-447
142,3552,-66,-456
143,3447,-234,-456
144,3447,-234,-471
145,3270,-363,-471
146,2919,-363,-552
147,2919,-558,-579
148,2742,-447,-579
149,2754,-447,-699
150,2754,-15,-762
151,2895,-15,-762
152,2895,186,-1026
153,3198,123,-1026
154,3207,123,-1377
155,3207,282,-2043
156,3123,96,-2043
157,3123,96,-2514
158,3324,123,-2514
159,4047,123,-2955
160,4047,-255,-2940
161,4587,-162,-2940
162,4587,-162,-2886
163,4449,432,-2886
164,4263,432,-3012
165,4263,240,-3027
166,3318,-474,-3027
167,2403,-474,-2991
168,2403,-540,-2991
169,1536,-540,-3021
170,1536,-240,-2841
171,1824,-543,-2841
172,1902,-543,-2529
173,1902,-210,-2202
174,1479,-210,-2202
175,1479,-213,-2112
176,816,-690,-2112
177,-306,-690,-2004
178,-306,-1098,-1944
179,-1176,-837,-1944
180,-1176,-837,-2232
181,-900,-642,-2232
182,102,-642,-2127
183,102,-420,-2193
184,795,42,-2193
185,474,42,-2568
186,474,-27,-2568
187,174,-27,-3270
188,174,-516,-4149
189,384,-459,-4149
190,888,-459,-4971
191,888,-579,-5226
192,1155,-579,-5226
193,1155,-408,-5424
194,1350,-300,-5424
195,1227,-300,-5559
196,1227,-423,-5568
197,894,-327,-5568
198,894,-327,-5634
199,1308,-441,-5634
200,1767,-441,-5634
201,1767,-312,-5604
202,1992,-225,-5604
203,1992,-225,-5529
204,1929,-198,-5529
205,1860,-198,-5394
206,1860,-87,-5256
207,1866,-171,-5256
208,1386,-171,-5247
209,1386,-372,-5232
210,1248,-372,-5232
211,1248,-273,-5016
212,1596,-210,-5016
213,1623,-210,-4860
214,1623,-240,-4716
215,1416,-240,-4716
216,1416,-102,-4551
217,1005,-123,-4551
218,831,-123,-4308
219,831,-63,-4170
220,1050,-216,-4170
221,1050,-216,-3834
222,1416,-63,-3834
223,1188,-63,-3633
224,1188,-39,-3522
225,897,6,-3522
226,1005,6,-3402
227,1005,-27,-3402
228,1122,-27,-3252
229,1122,-117,-3150
230,1536,-393,-3150
231,1020,-393,-3180
232,1020,-234,-3177
233,963,-234,-3177
234,963,-198,-3408
235,1056,-198,-3408
236,1257,-198,-3438
237,1257,-126,-3543
238,1338,-102,-3543
239,1338,-102,-3717
240,1041,-501,-3717
241,1188,-501,-4002
242,1188,-492,-3972
243,1359,-234,-3972
244,1383,-234,-4035
245,1383,-231,-4035
246,1362,-231,-4059
247,1362,-375,-3924
248,1260,-276,-3924
249,1221,-276,-3894
250,1221,-228,-3702
251,1299,-228,-3702
252,1299,-180,-3612
253,1422,-57,-3612
254,1464,-57,-3708
255,1464,-363,-3828
256,2076,-348,-3828
257,2076,-348,-3807
258,1974,-279,-3807
259,1617,-279,-3714
260,1617,-198,-3717
261,1422,-237,-3717
262,1473,-237,-3681
263,1473,-129,-3681
264,1521,-129,-3627
265,1521,-75,-3612
266,1791,-159,-3612
267,1671,-159,-3576
268,1671,-6,-3693
269,1758,-6,-3693
270,1758,24,-3672
271,1386,21,-3672
272,1131,21,-3759
273,1131,-237,-3882
274,1200,-177,-3882
275,1200,-177,-3864
276,1569,-69,-3864
277,1758,-69,-3708
278,1758,240,-3768
279,1887,282,-3768
280,1860,282,-3708
281,1860,231,-3708
282,1605,231,-3744
283,1605,18,-3858
284,1638,-90,-3858
285,1680,-90,-3954
286,1680,60,-3930
287,1962,60,-3930
288,1962,135,-3990
289,2187,162,-3990
290,2106,162,-3858
291,2106,87,-3885
292,2004,135,-3885
293,2004,135,-3900
294,1914,228,-3900
295,2121,228,-3807
296,2121,297,-3792
297,2121,141,-3792
298,1932,141,-3819
299,1932,165,-3819
300,1953,165,-3837
301,1953,462,-3852
302,2385,261,-3852
303,2430,261,-3768
304,2430,282,-3702
305,2196,282,-3702
306,2196,387,-3672
307,2157,420,-3672
308,2514,420,-3687
309,2514,264,-3657
310,2535,93,-3657
311,2535,93,-3513
312,2445,111,-3513
313,2538,111,-3543
314,2538,120,-3528
315,2601,-9,-3528
316,2670,-9,-3441
317,2670,-66,-3441
318,2568,-66,-3447
319,2568,-30,-3345
320,2532,-162,-3345
321,2619,-162,-3126
322,2619,-129,-3057
323,2592,-129,-3057
324,2592,-30,-2829
325,2664,15,-2829
326,2571,15,-2841
327,2571,-111,-2940
328,2616,-147,-2940
329,2616,-147,-2796
330,2487,-102,-2796
331,2487,-102,-2781
332,2487,-33,-2688
333,2646,0,-2688
334,2607,0,-2775
335,2607,27,-2754
336,2208,27,-2754
337,2208,-33,-2850
338,1842,-288,-2850
339,1833,-288,-2931
340,1833,-414,-2964
341,1956,-516,-2964
342,1956,-516,-2994
343,2058,-372,-2994
344,2124,-372,-2970
345,2124,-234,-2910
346,2160,-21,-2910
347,2160,-21,-2901
348,2157,222,-2901
349,2508,222,-3291
350,2508,-6,-3531
351,2754,-300,-3531
352,2886,-300,-3561
353,2886,-327,-3471
354,2799,-327,-3471
355,2799,-150,-3411
356,2814,-18,-3411
357,2604,-18,-3423
358,2604,102,-3363
359,2535,102,-3363
360,2535,45,-3210
361,2607,-78,-3210
362,2658,-78,-3132
363,2658,-228,-3030
364,2661,3,-3030
365,2661,3,-3036
366,2910,267,-3036
367,2799,267,-3222
368,2799,-15,-3573
369,2658,-261,-3573
370,2502,-261,-3939
371,2502,-276,-3939
372,2595,-276,-4164
373,2595,-336,-4356
374,2766,249,-4356
375,2742,249,-4359
376,2742,222,-4326
377,2625,222,-4326
378,2625,60,-4389
379,2025,24,-4389
380,1827,24,-4344
381,1827,-165,-4263
382,2256,42,-4263
383,2256,42,-3834
384,2814,324,-3834
385,3033,324,-3522
386,3033,486,-3327
387,2706,408,-3327
388,2523,408,-3282
389,2523,204,-3156
390,2616,204,-3156
391,2616,-51,-3036
392,2859,51,-3036
393,3021,51,-3096
394,3021,282,-3180
395,3150,282,-3180
396,3150,378,-3402
397,3249,27,-3402
398,3315,27,-3552
399,3315,-195,-3687
400,3414,-525,-3687
401,3414,-525,-3501
402,3363,-333,-3501
403,2934,-333,-3321
404,2934,-216,-3162
405,2934,-291,-3162
406,3243,-291,-2904
407,3243,-690,-2349
408,3411,-690,-2349
409,3411,-855,-2208
410,2973,-915,-2208
411,2706,-915,-2079
412,2706,-1224,-2082
413,2853,-1224,-2082
414,2853,-1326,-1962
415,3408,-1245,-1962
416,3324,-1245,-1557
417,3324,-1323,-1317
418,2847,-1560,-1317
419,2847,-1560,-1467
420,2382,-1602,-1467
421,2535,-1602,-1470
422,2535,-1980,-1461
423,2841,-2130,-1461
424,3108,-2130,-1425
425,3108,-1881,-1425
426,2997,-1881,-1290
427,2997,-1791,-1320
428,2532,-2175,-1320
429,2547,-2175,-1392
430,2547,-2085,-1179
431,2550,-2085,-1179
432,2550,-2154,-1065
433,2577,-2043,-1065
434,2703,-2043,-1101
435,2703,-2073,-1275
436,2520,-2394,-1275
437,2520,-2394,-1422
438,2466,-2727,-1422
439,2403,-2727,-1506
440,2403,-2616,-1692
441,2052,-2616,-1692
442,2052,-2616,-1347
443,-543,-1368,-1347
444,3327,-1368,129
445,3327,-3702,-2172
446,3972,-1527,-2172
447,2289,-1527,-1893
448,2289,-2424,-2970
449,1137,-2424,-2970
450,1137,-2931,-3441
451,735,-2226,-3441
452,2988,-2226,-2775
453,2988,-2232,-2664
454,3261,-2232,-2664
455,3261,-2547,-2445
456,2577,-2682,-2445
457,1362,-2682,-2781
458,1362,-2631,-3258
459,762,-2091,-3258
460,762,-2091,-3408
461,1314,-2424,-3408
462,2703,-2424,-3087
463,2703,-3075,-3072
464,2469,-3030,-3072
465,3438,-3030,-2799
466,3438,-1833,-2799
467,4002,-1833,-2799
468,4002,-1659,-2535
469,4602,-2145,-2535
470,2301,-2145,-2841
471,2301,-3096,-2721
472,2160,-3096,-2721
473,2160,-3033,-2664
474,1569,-3384,-2664
475,1560,-3384,-2430
476,1560,-2607,-2304
477,1833,-2205,-2304
478,1833,-2205,-1923
479,2466,-1866,-1923
480,2472,-1866,-1782
481,2472,-1842,-1656
482,2790,-2055,-1656
483,3198,-2055,-1482
484,3198,-2007,-1482
485,3555,-2007,-1461
486,3555,-1812,-1506
487,3471,-1668,-1506
488,2952,-1668,-1431
489,2952,-1635,-1527
490,2967,-1635,-1527
491,2967,-1518,-1581
492,2706,-1749,-1581
493,2163,-1749,-1668
494,2163,-1728,-1863
495,2187,-1500,-1863
496,2187,-1500,-2019
497,1641,-1095,-2019
498,1602,-1095,-2280
499,1602,-921,-2469
500,1578,-588,-2469
501,1317,-588,-2850
502,1317,-264,-3246
503,1086,-264,-3246
504,1086,-87,-3591
505,1059,-147,-3591
506,1131,-147,-3633
507,1131,24,-3654
508,1125,24,-3654
509,1125,498,-3864
510,846,666,-3864
511,537,666,-4104
512,537,930,-4230
513,27,726,-4230
514,27,726,-4341
515,360,207,-4341
516,63,207,-4461
517,63,372,-4314
518,96,1002,-4314
519,189,1002,-4521
520,189,1149,-4521
521,189,1149,-4848
522,189,981,-5520
523,285,744,-5520
524,930,744,-5604
525,930,69,-5559
526,945,69,-5559
527,945,195,-5538
528,924,96,-5538
529,954,96,-5382
530,954,-42,-5061
531,855,231,-5061
532,855,231,-4812
533,627,714,-4812
534,417,714,-4641
535,417,576,-4335
536,492,348,-4335
537,252,348,-3939
538,252,141,-3939
539,78,141,-3699
540,78,378,-3396
541,156,351,-3396
542,345,351,-3246
543,345,294,-3066
544,666,294,-3066
545,666,624,-2991
546,810,231,-2991
547,894,231,-3171
548,894,807,-3669
549,699,885,-3669
550,699,885,-3633
551,912,480,-3633
552,966,480,-4158
553,966,318,-4215
554,1143,348,-4215
555,1143,348,-4521
556,1284,432,-4521
557,1485,432,-4701
558,1485,525,-4962
559,1620,462,-4962
560,1785,462,-5178
561,1785,882,-5253
562,1884,882,-5253
563,1884,642,-5163
564,2109,390,-5163
565,1938,390,-4998
566,1938,420,-4692
567,1920,420,-4692
568,1920,447,-4680
569,1833,435,-4680
570,1764,435,-4536
571,1764,348,-4365
572,1566,555,-4365
573,1566,555,-4215
574,1524,489,-4215
575,1617,489,-4023
576,1617,204,-3777
577,1554,162,-3777
578,1311,162,-3507
579,1311,324,-3501
580,1248,324,-3501
581,1248,345,-3342
582,1110,144,-3342
583,1041,144,-3126
584,1041,-120,-2871
585,1371,-120,-2871
586,1371,-282,-2766
587,1338,291,-2766
588,1266,291,-2850
589,1266,453,-2952
590,1188,393,-2952
591,1188,393,-2982
592,1266,360,-2982
593,1224,360,-2940
594,1224,429,-3171
595,1404,486,-3171
596,1653,486,-3306
597,1653,336,-3306
598,1680,336,-3393
599,1680,339,-3549
600,1962,327,-3549
601,2268,327,-3567
602,2268,477,-3594
603,2289,477,-3594
604,2289,501,-3684
605,2352,612,-3684
606,2265,612,-3714
607,2265,582,-3759
608,2301,570,-3759
609,2301,570,-3654
610,2364,573,-3654
611,2205,573,-3654
612,2205,639,-3588
613,2088,669,-3588
614,1989,669,-3558
615,1989,669,-3612
616,1863,669,-3612
617,1863,573,-3579
618,1785,738,-3579
619,1704,738,-3642
620,1704,750,-3693
621,1797,756,-3693
622,1797,756,-3798
623,1911,636,-3798
624,1947,636,-3858
625,1947,585,-3804
626,1965,603,-3804
627,1965,603,-3792
628,2007,555,-3792
629,2100,555,-3894
630,2100,543,-3888
631,2163,633,-3888
632,2022,633,-3783
633,2022,552,-3699
634,1968,552,-3699
635,1968,654,-3627
636,1953,690,-3627
637,1935,690,-3612
638,1935,627,-3513
639,1830,699,-3513
640,1830,699,-3468
641,1848,783,-3468
642,1935,783,-3468
643,1935,765,-3411
644,1950,816,-3411
645,1950,816,-3477
646,1962,678,-3477
647,1929,678,-3372
648,1929,672,-3426
649,1947,621,-3426
650,1932,621,-3486
651,1932,582,-3543
652,2007,582,-3543
653,2007,699,-3573
654,1974,705,-3573
655,2049,705,-3594
656,2049,768,-3618
657,2040,768,-3618
658,2040,897,-3558
659,2082,888,-3558
660,2058,888,-3537
661,2058,816,-3498
662,2100,696,-3498
663,2100,696,-3501
664,2019,738,-3501
665,2031,738,-3432
666,2031,723,-3441
667,2061,654,-3441
668,2043,654,-3477
669,2043,741,-3447
670,2055,741,-3447
671,2055,693,-3432
672,2073,765,-3432
673,2037,765,-3492
674,2037,747,-3501
675,2121,747,-3501
676,2121,741,-3501
677,2019,732,-3501
678,2007,732,-3456
679,2007,675,-3486
680,2022,648,-3486
681,2022,648,-3486
682,1950,756,-3486
683,1932,756,-3492
684,1932,765,-3471
685,1929,849,-3471
686,1893,849,-3522
687,1893,735,-3522
688,1902,735,-3609
689,1902,747,-3543
690,1902,684,-3543
691,1920,684,-3603
692,1920,753,-3663
693,1881,753,-3663
694,1881,774,-3627
695,2058,723,-3627
696,2019,723,-3624
697,2019,732,-3639
698,1998,795,-3639
699,1998,795,-3612
700,1983,894,-3612
701,1920,894,-3669
702,1920,801,-3633
703,1887,702,-3633
704,1887,702,-3531
705,1887,774,-3531
706,1956,774,-3612
707,1956,792,-3582
708,1911,843,-3582
709,1989,843,-3672
710,1989,780,-3672
711,2022,780,-3579
712,2022,816,-3603
713,1998,822,-3603
714,2016,822,-3612
715,2016,819,-3609
716,1989,819,-3609
717,1989,831,-3567
718,1992,831,-3567
719,1998,831,-3552
720,1998,810,-3537
721,2004,855,-3537
722,2004,855,-3492
723,2052,819,-3492
724,2001,819,-3501
725,2001,798,-3471
726,2055,849,-3471
727,2070,849,-3423
728,2070,828,-3423
729,1980,828,-3396
730,1980,804,-3396
731,1980,879,-3396
732,2019,879,-3432
733,2019,792,-3456
734,2016,792,-3456
735,2016,825,-3456
736,2022,867,-3456
737,2067,867,-3477
738,2067,804,-3402
739,2058,804,-3402
740,2058,750,-3306
741,2091,777,-3306
742,2055,777,-3321
743,2055,831,-3408
744,1950,849,-3408
745,1950,849,-3417
746,1971,882,-3417
747,1971,882,-3438
748,1971,912,-3501
749,2037,1014,-3501
750,1923,1014,-3438
751,1923,846,-3438
752,1911,846,-3492
753,1911,888,-3423
754,1923,795,-3423
755,1950,795,-3408
756,1950,810,-3477
757,1899,810,-3477
758,1899,810,-3447
759,1980,897,-3447
760,1983,897,-3501
761,1983,957,-3507
762,2067,873,-3507
763,2067,873,-3471
764,2025,921,-3471
765,2025,921,-3513
766,2025,942,-3483
767,2049,963,-3483
768,2052,963,-3462
769,2052,903,-3462
770,2073,903,-3531
771,2073,942,-3438
772,2118,900,-3438
773,2106,900,-3507
774,2106,885,-3498
775,2016,885,-3498
776,2016,921,-3528
777,2088,846,-3528
778,2100,846,-3462
779,2100,918,-3453
780,2025,969,-3453
781,2025,969,-3522
782,2049,897,-3522
783,2016,897,-3516
784,2016,870,-3501
785,1923,867,-3501
786,1923,867,-3522
787,1953,852,-3522
788,1986,852,-3498
789,1986,969,-3531
790,1989,930,-3531
791,2037,930,-3528
792,2037,948,-3477
793,2058,948,-3477
794,2058,897,-3408
795,2055,837,-3408
796,2007,837,-3471
797,2007,882,-3408
798,2043,906,-3408
799,2043,906,-3462
800,2106,936,-3462
801,2067,936,-3462
802,2067,912,-3411
803,2076,885,-3411
804,2013,885,-3471
805,2013,906,-3471
806,2019,906,-3387
807,2019,897,-3408
808,2085,846,-3408
809,2067,846,-3381
810,2067,921,-3408
811,2007,921,-3408
812,2007,933,-3468
813,2004,942,-3468
814,2004,942,-3423
815,2004,918,-3441
816,1992,855,-3441
817,1992,855,-3462
818,1950,873,-3462
819,1980,873,-3441
820,1980,828,-3462
821,1968,918,-3462
822,2070,918,-3492
823,2070,978,-3492
824,2109,978,-3573
825,2109,969,-3492
826,2055,927,-3492
827,2037,927,-3471
828,2037,885,-3411
829,1971,885,-3411
830,1971,927,-3462
831,1923,948,-3462
832,1932,948,-3453
833,1932,891,-3513
834,2004,912,-3513
835,2004,912,-3507
836,2043,882,-3507
837,2052,882,-3522
838,2052,942,-3453
839,2049,945,-3453
840,1953,945,-3528
841,1953,897,-3528
842,1917,897,-3549
843,1917,852,-3483
844,1884,963,-3483
845,1917,963,-3486
846,1917,921,-3513
847,1965,921,-3513
848,1965,936,-3447
849,1974,1002,-3447
850,1962,1002,-3426
851,1962,969,-3381
852,1983,903,-3381
853,1983,903,-3492
854,1986,939,-3492
855,1980,939,-3456
856,1980,972,-3441
857,1929,981,-3441
858,1929,981,-3528
859,1971,900,-3528
860,1965,900,-3501
861,1965,939,-3549
862,1974,975,-3549
863,1938,975,-3603
864,1938,948,-3699
865,1902,948,-3699
866,1902,927,-3714
867,1947,951,-3714
868,1965,951,-3813
869,1965,972,-4008
870,1962,927,-4008
871,1962,927,-4170
872,2058,873,-4170
873,2127,873,-4389
874,2127,744,-4566
875,2274,672,-4566
876,2445,672,-4551
877,2445,690,-4551
878,2538,690,-4620
879,2538,654,-4722
880,2640,861,-4722
881,2694,861,-4695
882,2694,939,-4707
883,2514,939,-4707
884,2514,735,-4551
885,2568,792,-4551
886,2451,792,-4590
887,2451,399,-4425
888,2457,324,-4425
889,2457,324,-4269
890,2565,162,-4269
891,2625,162,-4299
892,2625,279,-4311
893,2601,192,-4311
894,2577,192,-4206
895,2577,18,-4206
896,2577,18,-4206
897,2577,-114,-4089
898,2508,-294,-4089
899,2403,-294,-3939
900,2403,-234,-3993
901,2478,-234,-3993
902,2478,-426,-3723
903,2502,-237,-3723
904,2274,-237,-3693
905,2274,-696,-3492
906,2277,-1200,-3492
907,2277,-1200,-3207
908,2298,-1479,-3207
909,2103,-1479,-3060
910,2103,-1455,-2916
911,2007,-1350,-2916
912,2037,-1350,-2754
913,2037,-1554,-2754
914,1980,-1554,-2520
915,1980,-1761,-2247
916,2043,-2004,-2247
917,2352,-2004,-2007
918,2352,-2019,-1791
919,2181,-2019,-1791
920,2181,-2058,-1632
921,2085,-2223,-1632
922,1842,-2223,-1386
923,1842,-2382,-1194
924,1881,-2196,-1194
925,1881,-2196,-981
926,1914,-2286,-981
927,1923,-2286,-744
928,1923,-2544,-468
929,2118,-2517,-468
930,1947,-2517,-261
931,1947,-2628,-261
932,1962,-2628,-18
933,1962,-2523,174
934,1917,-2577,174
935,1731,-2577,465
936,1731,-2874,777
937,1695,-2874,777
938,1695,-2706,963
939,1449,-2529,963
940,1317,-2529,1077
941,1317,-2604,1422
942,1284,-2781,1422
943,1284,-2781,1653
944,1086,-2484,1653
945,915,-2484,1800
946,915,-2130,1941
947,1023,-2190,1941
948,924,-2190,2154
949,924,-2394,2154
950,1044,-2394,2502
951,1044,-2364,2742
952,966,-2022,2742
953,1095,-2022,2883
954,1095,-1653,2967
955,801,-1653,2967
956,801,-1974,3063
957,684,-1899,3063
958,528,-1899,3153
959,528,-2052,3285
960,372,-2055,3285
961,372,-2055,3258
962,573,-1839,3258
963,594,-1839,3345
964,594,-1851,3384
965,699,-1761,3384
966,630,-1761,3498
967,630,-1758,3498
968,348,-1758,3540
969,348,-1629,3621
970,294,-1473,3621
971,138,-1473,3600
972,138,-1356,3609
973,213,-1356,3609
974,213,-1320,3591
975,237,-1218,3591
976,246,-1218,3729
977,246,-1086,3912
978,-27,-639,3912
979,-27,-639,4218
980,-459,-507,4218
981,-966,-507,4368
982,-966,-519,4563
983,-966,-237,4563
984,-1005,-237,4818
985,-1005,-153,4818
986,-930,-153,4884
987,-930,-249,4920
988,-861,-342,4920
989,-765,-342,4989
990,-765,-321,5004
991,-936,-321,5004
992,-936,-483,4950
993,-1068,-666,4950
994,-975,-666,4794
995,-975,-642,4653
996,-873,-729,4653
997,-873,-729,4458
998,-630,-798,4458
999,-273,-798,4362
1000,-273,-750,4173
1001,3,-759,4173
1002,132,-759,3915
1003,132,-861,3915
1004,99,-861,3897
1005,99,-975,3786
1006,99,-999,3786
1007,-84,-999,3771
1008,-84,-1104,3711
1009,-66,-1104,3711
1010,-66,-1077,3771
1011,-33,-1041,3771
1012,72,-1041,3795
1013,72,-966,3897
1014,96,-804,3897
1015,96,-804,4125
1016,-51,-498,4125
1017,-411,-498,4347
1018,-411,-606,4533
1019,-540,-615,4533
1020,-555,-615,4710
1021,-555,-510,4710
1022,-993,-510,4770
1023,-993,-528,4950
1024,-1533,-597,4950
1025,-1371,-597,5376
1026,-1371,-657,5460
1027,-942,-657,5460
1028,-942,-546,5109
1029,-879,-639,5109
1030,-696,-639,4899
1031,-696,-663,4794
1032,-585,-732,4794
1033,-585,-732,4839
1034,-678,-957,4839
1035,-702,-957,4638
1036,-702,-1104,4488
1037,-342,-840,4488
1038,-393,-840,4131
1039,-393,-750,4131
1040,-231,-750,3951
1041,-231,-840,3615
1042,-216,-969,3615
1043,129,-969,3408
1044,129,-1245,3138
1045,492,-1245,3138
1046,492,-1470,2904
1047,621,-1566,2904
1048,759,-1566,2793
1049,759,-1635,2505
1050,888,-1785,2505
1051,888,-1785,2184
1052,1191,-2091,2184
1053,1503,-2091,2049
1054,1503,-2097,1893
1055,1386,-2109,1893
1056,1569,-2109,1614
1057,1569,-2385,1524
1058,1431,-2385,1524
1059,1431,-2511,1332
1060,1620,-2547,1332
1061,1596,-2547,996
1062,1596,-2607,780
1063,2079,-2586,780
1064,2079,-2586,540
1065,2010,-2373,540
1066,1884,-2373,315
1067,1884,-2445,-18
1068,1728,-2595,-18
1069,1728,-2595,-96
1070,2139,-2679,-96
1071,2205,-2679,-291
1072,2205,-2574,-477
1073,2004,-2538,-477
1074,2238,-2538,-705
1075,2238,-2502,-840
1076,2427,-2502,-840
1077,2427,-2523,-984
1078,2334,-2259,-984
1079,2325,-2259,-1542
1080,2325,-1917,-1926
1081,2334,-1917,-1926
1082,2334,-1908,-2169
1083,2673,-1965,-2169
1084,2817,-1965,-2343
1085,2817,-1932,-2619
1086,2742,-1851,-2619
1087,2742,-1851,-2805
1088,2586,-1671,-2805
1089,2397,-1671,-3027
1090,2397,-1674,-3090
1091,2571,-1980,-3090
1092,2853,-1980,-3051
1093,2853,-1902,-3051
1094,2739,-1902,-3060
1095,2739,-1611,-3021
1096,2760,-1362,-3021
1097,2691,-1362,-3210
1098,2691,-1422,-3030
1099,2805,-1422,-3030
1100,2805,-1599,-3015
1101,2541,-996,-3015
1102,2220,-996,-3075
1103,2220,-807,-3387
1104,2358,-921,-3387
1105,2358,-921,-3363
1106,2478,-885,-3363
1107,2439,-885,-3543
1108,2439,-780,-3843
1109,2376,-720,-3843
1110,2607,-720,-4128
1111,2607,-843,-4296
1112,2760,-843,-4296
1113,2760,-1032,-4410
1114,2904,-1104,-4410
1115,2835,-1104,-4542
1116,2835,-1059,-4461
1117,2781,-1059,-4461
1118,2781,-915,-4179
1119,2586,-840,-4179
1120,2517,-840,-4065
1121,2517,-678,-3954
1122,2361,-678,-3954
1123,2361,-678,-3798
1124,2430,-561,-3798
1125,2433,-561,-3762
1126,2433,-453,-3687
1127,2454,-588,-3687
1128,2547,-588,-3753
1129,2547,-606,-3813
1130,2640,-606,-3813
1131,2640,-549,-3723
1132,2733,-594,-3723
1133,2742,-594,-3672
1134,2742,-522,-3603
1135,2640,-522,-3603
1136,2640,-528,-3528
1137,2523,-507,-3528
1138,2502,-507,-3408
1139,2502,-393,-3315
1140,2325,-453,-3315
1141,2325,-453,-3225
1142,2358,-447,-3225
1143,2325,-447,-3216
1144,2325,-432,-3225
1145,2244,-498,-3225
1146,2310,-498,-3141
1147,2310,-372,-3141
1148,2310,-372,-3192
1149,2310,-444,-3156
1150,2325,-432,-3156
1151,2349,-432,-3195
1152,2349,-507,-3261
1153,2409,-507,-3261
1154,2409,-480,-3225
1155,2466,-492,-3225
1156,2430,-492,-3222
1157,2430,-492,-3231
1158,2427,-444,-3231
1159,2427,-444,-3297
1160,2367,-447,-3297
1161,2382,-447,-3327
1162,2382,-432,-3237
1163,2463,-516,-3237
1164,2364,-516,-3141
1165,2364,-453,-3225
1166,2346,-453,-3225
1167,2346,-402,-3252
1168,2466,-447,-3252
1169,2568,-447,-3231
1170,2568,-444,-3207
1171,2610,-444,-3207
1172,2610,-363,-3210
1173,2592,-363,-3210
1174,2577,-363,-3237
1175,2577,-402,-3261
1176,2526,-342,-3261
1177,2526,-342,-3207
1178,2523,-501,-3207
1179,2457,-501,-3060
1180,2457,-399,-3222
1181,2469,-357,-3222
1182,2433,-357,-3231
1183,2433,-363,-3231
1184,2448,-363,-3222
1185,2448,-396,-3207
1186,2481,-354,-3207
1187,2481,-354,-3195
1188,2481,-402,-3276
1189,2619,-420,-3276
1190,2619,-420,-3261
1191,2604,-366,-3261
1192,2673,-366,-3237
1193,2673,-354,-3261
1194,2571,-351,-3261
1195,2571,-351,-3195
1196,2547,-384,-3195
1197,2520,-384,-3192
1198,2520,-396,-3195
1199,2565,-333,-3195
1200,2568,-333,-3192
1201,2568,-375,-3165
1202,2610,-375,-3165
1203,2610,-306,-3231
1204,2652,-384,-3231
1205,2577,-384,-3180
1206,2577,-333,-3141
1207,2577,-369,-3141
1208,2577,-369,-3126
1209,2622,-354,-3126
1210,2670,-354,-3147
1211,2670,-429,-3210
1212,2619,-330,-3210
1213,2559,-330,-3225
1214,2559,-399,-3225
1215,2571,-399,-3192
1216,2571,-369,-3246
1217,2523,-378,-3246
1218,2505,-378,-3216
1219,2505,-291,-3177
1220,2574,-291,-3177
1221,2574,-345,-3177
1222,2586,-399,-3177
1223,2568,-399,-3246
1224,2568,-312,-3246
1225,2583,-447,-3246
1226,2583,-447,-3177
1227,2556,-426,-3177
1228,2532,-426,-3237
1229,2532,-420,-3105
1230,2490,-453,-3105
1231,2508,-453,-3111
1232,2508,-282,-3111
1233,2643,-282,-3132
1234,2643,-273,-3147
1235,2595,-276,-3147
1236,2532,-276,-3087
1237,2532,-384,-3072
1238,2469,-384,-3072
1239,2469,-402,-3186
1240,2388,-390,-3186
1241,2463,-390,-3135
1242,2463,-354,-3141
1243,2601,-372,-3141
1244,2601,-372,-3165
1245,2607,-351,-3165
1246,2664,-351,-3156
1247,2664,-372,-3237
1248,2652,-336,-3237
1249,2664,-336,-3201
1250,2664,-408,-3201
1251,2586,-408,-3120
1252,2586,-339,-3090
1253,2607,-312,-3090
1254,2535,-312,-3135
1255,2535,-378,-3135
1256,2547,-378,-3135
1257,2547,-324,-3081
1258,2559,-291,-3081
1259,2625,-291,-3162
1260,2625,-294,-3090
1261,2616,-294,-3090
1262,2616,-303,-3021
1263,2595,-330,-3021
1264,2532,-330,-3051
1265,2532,-339,-3126
1266,2661,-303,-3126
1267,2661,-303,-3102
1268,2703,-321,-3102
1269,2607,-321,-3087
1270,2607,-324,-3192
1271,2646,-378,-3192
1272,2646,-378,-3180
1273,2646,-333,-3180
1274,2628,-333,-3117
1275,2628,-312,-3186
1276,2652,-333,-3186
1277,2610,-333,-3195
1278,2610,-381,-3165
1279,2577,-381,-3165
1280,2577,-303,-3111
1281,2652,-357,-3111
1282,2685,-357,-3150
1283,2685,-357,-3141
1284,2739,-252,-3141
1285,2739,-252,-3156
1286,2697,-321,-3156
1287,2670,-321,-3120
1288,2670,-372,-3105
1289,2634,-342,-3105
1290,2634,-342,-3147
1291,2634,-303,-3147
1292,2607,-303,-3180
1293,2607,-348,-3141
1294,2601,-387,-3141
1295,2661,-387,-3126
1296,2661,-378,-3147
1297,2808,-378,-3147
1298,2808,-339,-3231
1299,2844,-339,-3231
1300,2754,-339,-3207
1301,2754,-459,-3285
1302,2715,-459,-3285
1303,2715,-483,-3408
1304,2676,-540,-3408
1305,2697,-540,-3378
1306,2697,-648,-3393
1307,2811,-543,-3393
1308,2811,-543,-3438
1309,2892,-465,-3438
1310,2952,-465,-3477
1311,2952,-498,-3531
1312,2901,-561,-3531
1313,2775,-561,-3513
1314,2775,-678,-3513
1315,2733,-678,-3597
1316,2733,-666,-3672
1317,2814,-777,-3672
1318,2910,-777,-3684
1319,2910,-747,-3759
1320,3159,-747,-3759
1321,3159,-873,-3762
1322,3222,-795,-3762
1323,3171,-795,-3783
1324,3171,-1011,-3888
1325,3087,-1107,-3888
1326,3087,-1107,-3924
1327,3018,-1026,-3924
1328,2886,-1026,-3933
1329,2886,-1092,-3774
1330,2850,-1179,-3774
1331,2850,-1179,-3744
1332,2841,-1188,-3744
1333,2715,-1188,-3672
1334,2715,-1353,-3507
1335,2565,-1521,-3507
1336,2502,-1521,-3432
1337,2502,-1527,-3243
1338,2610,-1527,-3243
1339,2610,-1365,-3060
1340,2694,-1362,-3060
1341,2694,-1362,-2826
1342,2694,-1461,-2610
1343,2661,-1461,-2610
1344,2661,-1443,-2445
1345,2370,-1716,-2445
1346,2382,-1716,-2199
1347,2382,-1830,-1908
1348,2310,-1842,-1908
1349,2310,-1842,-1767
1350,2316,-1971,-1767
1351,2295,-1971,-1542
1352,2295,-1926,-1545
1353,2085,-2265,-1545
1354,2034,-2265,-1317
1355,2034,-2487,-1134
1356,2070,-2487,-1134
1357,2070,-2751,-1116
1358,1974,-2760,-1116
1359,2058,-2760,-1014
1360,2058,-2676,-885
1361,2226,-2676,-885
1362,2226,-2694,-810
1363,2283,-2850,-810
1364,2307,-2850,-744
1365,2307,-2925,-663
1366,2472,-2994,-663
1367,2472,-2994,-444
1368,2535,-3066,-444
1369,2532,-3066,-348
1370,2532,-3225,-177
1371,2478,-3027,-177
1372,2505,-3027,-78
1373,2505,-2874,-78
1374,2286,-2874,78
1375,2286,-2979,321
1376,2286,-3024,321
1377,2115,-3024,549
1378,2115,-3075,771
1379,2103,-3075,771
1380,2103,-2895,882
1381,2094,-2616,882
1382,2073,-2616,1071
1383,2073,-2568,1284
1384,2130,-2652,1284
1385,2130,-2652,1497
1386,1920,-2703,1497
1387,1758,-2703,1734
1388,1758,-2418,1941
1389,1569,-2292,1941
1390,1563,-2292,2154
1391,1563,-2214,2154
1392,1419,-2214,2487
1393,1419,-2085,2571
1394,1383,-1869,2571
1395,1311,-1869,2676
1396,1311,-1956,2913
1397,1266,-1956,2913
1398,1266,-2118,3132
1399,1302,-2001,3132
1400,1059,-2001,3270
1401,1059,-1734,3300
1402,918,-1497,3300
1403,918,-1497,3225
1404,1005,-1587,3225
1405,1185,-1587,3333
1406,1185,-1542,3315
1407,1173,-1524,3315
1408,942,-1524,3192
1409,942,-1683,3192
1410,897,-1683,3168
1411,897,-1593,3273
1412,690,-1371,3273
1413,759,-1371,3258
1414,759,-1158,3300
1415,672,-1158,3300
1416,672,-1143,3333
1417,507,-1083,3333
1418,294,-1083,3609
1419,294,-975,3735
1420,21,-993,3735
1421,21,-993,3861
1422,-285,-1029,3861
1423,-354,-1029,4140
1424,-354,-654,4398
1425,-267,-303,4398
1426,-267,-303,4629
1427,-222,-204,4629
1428,-291,-204,4680
1429,-291,-147,4815
1430,-642,-24,4815
1431,-633,-24,4980
1432,-633,225,5094
1433,-600,225,5094
1434,-600,333,5058
1435,-573,255,5058
1436,-792,255,5070
1437,-792,267,5115
1438,-945,267,5115
1439,-945,309,5190
1440,-735,378,5190
1441,-531,378,5109
1442,-531,408,4935
1443,-582,357,4935
1444,-582,357,4797
1445,-426,288,4797
1446,-195,288,4689
1447,-195,288,4473
1448,-264,-36,4473
1449,-390,-36,4398
1450,-390,-231,4398
1451,-750,-231,4458
1452,-750,-201,4587
1453,-636,-132,4587
1454,-303,-132,4728
1455,-303,-3,4644
1456,-183,-3,4644
1457,-183,-120,4602
1458,-111,-123,4602
1459,-213,-123,4614
1460,-213,-48,4467
1461,-57,-369,4467
1462,-57,-369,4182
1463,-63,-549,4182
1464,216,-549,4086
1465,216,-636,3819
1466,435,-654,3819
1467,558,-654,3438
1468,558,-1209,3438
1469,936,-1209,2988
1470,936,-1506,2934
1471,1173,-1635,2934
1472,1284,-1635,2853
1473,1284,-1752,2421
1474,1260,-1752,2421
1475,1260,-2247,2262
1476,1365,-2487,2262
1477,1467,-2487,2271
1478,1467,-2649,1965
1479,1488,-2649,1965
1480,1488,-2667,1944
1481,1614,-2565,1944
1482,1890,-2565,1770
1483,1890,-2427,1659
1484,2007,-2430,1659
1485,2007,-2430,1284
1486,1986,-2613,1284
1487,2004,-2613,1068
1488,2004,-2955,1092
1489,1902,-2961,1092
1490,1914,-2961,921
1491,1914,-2628,921
1492,1731,-2628,711
1493,1731,-2385,189
1494,1581,-2847,189
1495,1923,-2847,54
1496,1923,-3381,33
1497,2241,-3381,33
1498,2241,-3150,-36
1499,2076,-2721,-36
1500,2124,-2721,-237
1501,2124,-2532,-693
1502,1893,-2658,-693
1503,1893,-2658,-924
1504,1992,-3183,-924
1505,2139,-3183,-1056
1506,2139,-3126,-1059
1507,2190,-2862,-1059
1508,2088,-2862,-1149
1509,2088,-2475,-1149
1510,2358,-2475,-1560
1511,2358,-2112,-1902
1512,2343,-2478,-1902
1513,2637,-2478,-1833
1514,2637,-2772,-1893
1515,2571,-2772,-1893
1516,2571,-2691,-1992
1517,2328,-2244,-1992
1518,2268,-2244,-2310
1519,2268,-2118,-2493
1520,2310,-2352,-2493
1521,2310,-2352,-2445
1522,2454,-2391,-2445
1523,2388,-2391,-2469
1524,2388,-2124,-2538
1525,2379,-1773,-2538
1526,2430,-1773,-2781
1527,2430,-1926,-2781
1528,2457,-1926,-2730
1529,2457,-2022,-2694
1530,2457,-1836,-2694
1531,2412,-1836,-2751
1532,2412,-1563,-2865
1533,2349,-1563,-2865
1534,2349,-1362,-2910
1535,2280,-1248,-2910
1536,2241,-1248,-3042
1537,2241,-1425,-3186
1538,2055,-1425,-3186
1539,2055,-1296,-3237
1540,2145,-1110,-3237
1541,2043,-1110,-3306
1542,2043,-948,-3432
1543,2124,-837,-3432
1544,2124,-837,-3531
1545,2205,-714,-3531
1546,2172,-714,-3588
1547,2172,-636,-3729
1548,2142,-573,-3729
1549,2160,-573,-3762
1550,2160,-624,-4008
1551,2256,-624,-4008
1552,2256,-465,-4218
1553,2274,-507,-4218
1554,2481,-507,-4335
1555,2481,-690,-4341
1556,2622,-609,-4341
1557,2622,-609,-4335
1558,2628,-582,-4335
1559,2730,-582,-4446
1560,2730,-576,-4419
1561,2706,-573,-4419
1562,2607,-573,-4365
1563,2607,-366,-4365
1564,2481,-366,-4365
1565,2481,-159,-4335
1566,2418,-174,-4335
1567,2238,-174,-4194
1568,2238,-222,-4038
1569,2145,-222,-4038
1570,2145,-339,-3942
1571,2085,-366,-3942
1572,2106,-366,-3882
1573,2106,-213,-3807
1574,2259,-147,-3807
1575,2259,-147,-3717
1576,2433,-60,-3717
1577,2427,-60,-3666
1578,2427,-132,-3543
1579,2352,-246,-3543
1580,2052,-246,-3441
1581,2052,-279,-3441
1582,1938,-279,-3477
1583,1938,-273,-3336
1584,1920,-204,-3336
1585,1920,-204,-3393
1586,1920,-213,-3357
1587,1932,-213,-3357
1588,1932,-201,-3372
1589,1962,-291,-3372
1590,1944,-291,-3291
1591,1944,-348,-3312
1592,1929,-414,-3312
1593,1929,-414,-3366
1594,1980,-330,-3366
1595,2034,-330,-3387
1596,2034,-276,-3336
1597,2103,-261,-3336
1598,2103,-261,-3342
1599,2160,-285,-3342
1600,2139,-285,-3366
1601,2139,-255,-3372
1602,2175,-222,-3372
1603,2121,-222,-3330
1604,2121,-339,-3366
1605,2178,-339,-3366
1606,2178,-357,-3423
1607,2340,-321,-3423
1608,2265,-321,-3438
1609,2265,-282,-3507
1610,2190,-282,-3507
1611,2190,-219,-3456
1612,2226,-321,-3456
1613,2247,-321,-3486
1614,2247,-342,-3456
1615,2283,-378,-3456
1616,2283,-378,-3387
1617,2301,-297,-3387
1618,2268,-297,-3417
1619,2268,-234,-3432
1620,2211,-288,-3432
1621,2265,-288,-3345
1622,2265,-264,-3345
1623,2244,-264,-3291
1624,2244,-183,-3327
1625,2325,-174,-3327
1626,2259,-174,-3366
1627,2259,-216,-3321
1628,2223,-216,-3321
1629,2223,-321,-3393
1630,2151,-282,-3393
1631,2205,-282,-3321
1632,2205,-276,-3408
1633,2265,-237,-3408
1634,2265,-237,-3372
1635,2379,-228,-3372
1636,2334,-228,-3378
1637,2334,-174,-3393
1638,2328,-192,-3393
1639,2145,-192,-3423
1640,2145,-243,-3423
1641,2226,-243,-3387
1642,2226,-243,-3387
1643,2181,-216,-3387
1644,2226,-216,-3342
1645,2226,-177,-3291
1646,2265,-177,-3291
1647,2265,-66,-3417
1648,2274,-72,-3417
1649,2325,-72,-3366
1650,2325,-138,-3336
1651,2274,-165,-3336
1652,2274,-165,-3306
1653,2340,-153,-3306
1654,2409,-153,-3351
1655,2409,-120,-3378
1656,2370,-150,-3378
1657,2310,-150,-3438
1658,2310,-93,-3438
1659,2298,-93,-3432
1660,2298,-96,-3402
1661,2343,-132,-3402
1662,2331,-132,-3447
1663,2331,-141,-3468
1664,2400,-141,-3468
1665,2400,-189,-3516
1666,2352,-198,-3516
1667,2376,-198,-3471
1668,2376,-81,-3507
1669,2343,-147,-3507
1670,2343,-147,-3498
1671,2361,-126,-3498
1672,2313,-126,-3441
1673,2313,-99,-3456
1674,2343,-159,-3456
1675,2343,-159,-3423
1676,2388,-81,-3423
1677,2409,-81,-3393
1678,2409,-75,-3396
1679,2412,-72,-3396
1680,2409,-72,-3402
1681,2409,-45,-3327
1682,2382,-45,-3327
1683,2382,-66,-3378
1684,2343,-45,-3378
1685,2400,-45,-3327
1686,2400,-12,-3408
1687,2343,-12,-3408
1688,2343,-81,-3378
1689,2331,-66,-3378
1690,2241,-66,-3366
1691,2241,-96,-3402
1692,2256,-75,-3402
1693,2256,-75,-3342
1694,2244,-117,-3342
1695,2292,-117,-3378
1696,2292,-135,-3381
1697,2313,-120,-3381
1698,2376,-120,-3432
1699,2376,-63,-3321
1700,2379,-63,-3321
1701,2379,-81,-3396
1702,2328,-48,-3396
1703,2283,-48,-3588
1704,2283,-123,-3441
1705,2346,-126,-3441
1706,2346,-126,-3417
1707,2388,-99,-3417
1708,2385,-99,-3360
1709,2385,-132,-3336
1710,2463,-36,-3336
1711,2463,-36,-3372
1712,2433,-33,-3372
1713,2433,-33,-3327
1714,2433,-15,-3321
1715,2454,-33,-3321
1716,2400,-33,-3342
1717,2400,-75,-3357
1718,2346,-75,-3357
1719,2346,21,-3276
1720,2364,-33,-3276
1721,2415,-33,-3321
1722,2415,-78,-3306
1723,2415,-36,-3306
1724,2415,-36,-3351
1725,2490,-66,-3351
1726,2397,-66,-3282
1727,2397,-27,-3237
1728,2361,0,-3237
1729,2385,0,-3321
1730,2385,-48,-3321
1731,2349,-48,-3321
1732,2349,-75,-3285
1733,2352,-60,-3285
1734,2412,-60,-3321
1735,2412,-60,-3285
1736,2427,-60,-3285
1737,2427,-36,-3291
1738,2448,-36,-3291
1739,2448,-36,-3297
1740,2448,15,-3297
1741,2412,-9,-3297
1742,2412,-9,-3261
1743,2433,-30,-3261
1744,2436,-30,-3312
1745,2436,-69,-3267
1746,2385,-33,-3267
1747,2478,-33,-3237
1748,2478,-81,-3237
1749,2478,-81,-3321
1750,2478,21,-3303
1751,2481,3,-3303
1752,2463,3,-3273
1753,2463,-15,-3237
1754,2484,-15,-3237
1755,2484,0,-3207
1756,2538,-42,-3207
1757,2451,-42,-3207
1758,2451,-27,-3312
1759,2457,9,-3312
1760,2457,9,-3150
1761,2421,36,-3150
1762,2370,36,-3195
1763,2370,15,-3210
1764,2403,-78,-3210
1765,2403,-78,-3225
1766,2385,-36,-3225
1767,2289,-36,-3300
1768,2289,-18,-3186
1769,2316,21,-3186
1770,2367,21,-3333
1771,2367,-24,-3327
1772,2523,-24,-3327
1773,2523,-33,-3426
1774,2472,-87,-3426
1775,2583,-87,-3558
1776,2583,-153,-3591
1777,2694,-147,-3591
1778,2694,-147,-3657
1779,2901,-60,-3657
1780,3039,-60,-3867
1781,3039,-195,-4038
1782,3030,-351,-4038
1783,3030,-351,-4059
1784,2946,-372,-4059
1785,2697,-372,-4284
1786,2697,-603,-4416
1787,2643,-624,-4416
1788,2826,-624,-4584
1789,2826,-720,-4665
1790,3207,-720,-4665
1791,3207,-636,-4782
1792,3156,-792,-4782
1793,3123,-792,-4725
1794,3123,-858,-4680
1795,2949,-858,-4680
1796,2949,-888,-4641
1797,2760,-1026,-4641
1798,2595,-1026,-4536
1799,2595,-1164,-4356
1800,2292,-1236,-4356
1801,2292,-1236,-4245
1802,2265,-1320,-4245
1803,2109,-1320,-4089
1804,2109,-1287,-3798
1805,2100,-1206,-3798
1806,2127,-1206,-3618
1807,2127,-1203,-3618
1808,2160,-1203,-3288
1809,2160,-1380,-2865
1810,2256,-1548,-2865
1811,2151,-1548,-2775
1812,2151,-1680,-2514
1813,2214,-1680,-2514
1814,2214,-1650,-2364
1815,2082,-1986,-2364
1816,1896,-1986,-2247
1817,1896,-2196,-2028
1818,1851,-2415,-2028
1819,1851,-2415,-1851
1820,1914,-2544,-1851
1821,1935,-2544,-1602
1822,1935,-2511,-1365
1823,2016,-2739,-1365
1824,2016,-2739,-1071
1825,2043,-2757,-1071
1826,1935,-2757,-888
1827,1935,-2679,-612
1828,1773,-2724,-612
1829,1854,-2724,-378
1830,1854,-2766,-378
1831,1980,-2766,-147
1832,1980,-2832,39
1833,2022,-2784,39
1834,2067,-2784,183
1835,2067,-2757,309
1836,1974,-2757,309
1837,1974,-2376,510
1838,1929,-2262,510
1839,1914,-2262,600
1840,1914,-2601,867
1841,1770,-3024,867
1842,1770,-3024,1197
1843,2223,-2736,1197
1844,1932,-2736,1302
1845,1932,-2277,1494
1846,1554,-2220,1494
1847,1335,-2220,1764
1848,1335,-2241,1764
1849,1182,-2241,2166
1850,1182,-2154,2457
1851,954,-2106,2457
1852,1038,-2106,2661
1853,1038,-1776,2796
1854,1008,-1776,2796
1855,1008,-1698,2994
1856,840,-1674,2994
1857,783,-1674,3087
1858,783,-1506,3192
1859,594,-1611,3192
1860,594,-1611,3228
1861,633,-1410,3228
1862,573,-1410,3162
1863,573,-1221,3243
1864,540,-1215,3243
1865,504,-1215,3360
1866,504,-1095,3360
1867,465,-1095,3279
1868,465,-963,3375
1869,393,-744,3375
1870,423,-744,3384
1871,423,-651,3420
1872,420,-651,3420
1873,420,-324,3636
1874,270,-48,3636
1875,-90,-48,3840
1876,-90,189,4173
1877,-591,189,4173
1878,-591,417,4407
1879,-894,624,4407
1880,-936,624,4677
1881,-936,657,4884
1882,-975,639,4884
1883,-975,639,5010
1884,-1320,696,5010
1885,-1263,696,5199
1886,-1263,825,5265
1887,-1215,840,5265
1888,-1095,840,5295
1889,-1095,861,5295
1890,-1281,861,5310
1891,-1281,672,5169
1892,-1242,678,5169
1893,-1341,678,5250
1894,-1341,780,5211
1895,-1299,780,5211
1896,-1299,792,5250
1897,-1293,972,5250
1898,-1032,972,5301
1899,-1032,987,5340
1900,-780,1200,5340
1901,-780,1200,5325
1902,-942,1029,5325
1903,-1005,1029,5196
1904,-1005,753,5151
1905,-975,687,5151
1906,-975,687,5019
1907,-888,468,5019
1908,-696,468,4788
1909,-696,261,4473
1910,-669,63,4473
1911,-387,63,4356
1912,-387,36,4041
1913,-303,36,4041
1914,-303,-102,3630
1915,-249,-492,3630
1916,-33,-492,3195
1917,-33,-591,3048
1918,201,-591,3048
1919,201,-939,2742
1920,642,-993,2742
1921,1044,-993,2310
1922,1044,-1065,1971
1923,1269,-1455,1971
1924,1269,-1455,1578
1925,1488,-1764,1578
1926,1365,-1764,1251
1927,1365,-2439,978
1928,1656,-2481,978
1929,1767,-2481,756
1930,1767,-2604,516
1931,1788,-2604,516
1932,1788,-2649,339
1933,1677,-2847,339
1934,1881,-2847,33
1935,1881,-3000,-21
1936,2319,-3000,-21
1937,2319,-3060,-93
1938,2259,-3126,-93
1939,2517,-3126,-321
1940,2517,-2838,-384
1941,2508,-2913,-384
1942,2508,-2913,-291
1943,2553,-2904,-291
1944,2226,-2904,-594
1945,2226,-3153,-918
1946,2037,-2778,-918
1947,1980,-2778,-1245
1948,1980,-2580,-1245
1949,1917,-2580,-1596
1950,1917,-2598,-2007
1951,2085,-2652,-2007
1952,2205,-2652,-2355
1953,2205,-2577,-2601
1954,2691,-2577,-2601
1955,2691,-2178,-2736
1956,2784,-2175,-2736
1957,2595,-2175,-2784
1958,2595,-2028,-2991
1959,2412,-1986,-2991
1960,2412,-1986,-3072
1961,2346,-2229,-3072
1962,2430,-2229,-3090
1963,2430,-2364,-2829
1964,2484,-2205,-2829
1965,2151,-2205,-2895
1966,2151,-1872,-2895
1967,2103,-1872,-2985
1968,2103,-1707,-2976
1969,2121,-1800,-2976
1970,2250,-1800,-2760
1971,2250,-1695,-2820
1972,2262,-1695,-2820
1973,2262,-1620,-2931
1974,2145,-1500,-2931
1975,2124,-1500,-2916
1976,2124,-1287,-2886
1977,2232,-1218,-2886
1978,2232,-1218,-2937
1979,2334,-840,-2937
1980,2319,-840,-3057
1981,2319,-630,-3207
1982,2190,-495,-3207
1983,2190,-495,-3345
1984,2151,-384,-3345
1985,2118,-384,-3387
1986,2118,-123,-3687
1987,2160,-51,-3687
1988,2205,-51,-4038
1989,2205,204,-4389
1990,2190,204,-4389
1991,2190,-102,-4725
1992,2121,-561,-4725
1993,2274,-561,-4776
1994,2274,-621,-4677
1995,2604,-621,-4677
1996,2604,-588,-4566
1997,2706,-699,-4566
1998,2919,-699,-4296
1999,2919,-423,-4149
2000,3057,207,-4149
2001,3057,207,-4020
2002,3033,324,-4020
2003,2826,324,-3852
2004,2826,333,-3708
2005,2385,261,-3708
2006,2124,261,-3624
2007,2124,-42,-3624
2008,1968,-42,-3546
2009,1968,-27,-3672
2010,1989,255,-3672
2011,2169,255,-3579
2012,2169,198,-3558
2013,2259,198,-3558
2014,2259,180,-3543
2015,2448,78,-3543
2016,2607,78,-3462
2017,2607,228,-3501
2018,2505,228,-3501
2019,2505,234,-3507
2020,2403,237,-3507
2021,2343,237,-3513
2022,2343,105,-3432
2023,2205,180,-3432
2024,2205,180,-3501
2025,2145,129,-3501
2026,2100,129,-3456
2027,2100,147,-3423
2028,2070,57,-3423
2029,2154,57,-3357
2030,2154,186,-3357
2031,2349,186,-3387
2032,2349,207,-3408
2033,2517,231,-3408
2034,2508,231,-3372
2035,2508,186,-3363
2036,2409,186,-3363
2037,2409,123,-3447
2038,2256,114,-3447
2039,2313,114,-3372
2040,2313,138,-3417
2041,2292,171,-3417
2042,2292,171,-3438
2043,2331,102,-3438
2044,2454,102,-3303
2045,2454,114,-3276
2046,2421,177,-3276
2047,2490,177,-3363
2048,2490,231,-3363
2049,2523,231,-3348
2050,2523,198,-3378
2051,2394,204,-3378
2052,2334,204,-3333
2053,2334,186,-3321
2054,2334,186,-3321
2055,2334,93,-3291
2056,2325,147,-3291
2057,2400,147,-3336
2058,2400,147,-3348
2059,2439,144,-3348
2060,2439,144,-3342
2061,2403,75,-3342
2062,2394,75,-3303
2063,2394,60,-3306
2064,2346,162,-3306
2065,2346,162,-3303
2066,2289,225,-3303
2067,2334,225,-3291
2068,2334,81,-3252
2069,2283,177,-3252
2070,2331,177,-3303
2071,2331,108,-3417
2072,2352,108,-3417
2073,2352,63,-3351
2074,2400,96,-3351
2075,2451,96,-3348
2076,2451,177,-3333
2077,2505,177,-3333
2078,2505,189,-3321
2079,2487,132,-3321
2080,2379,132,-3306
2081,2379,165,-3342
2082,2301,108,-3342
2083,2301,108,-3351
2084,2382,78,-3351
2085,2490,78,-3312
2086,2490,24,-3297
2087,2499,156,-3297
2088,2502,156,-3342
2089,2502,207,-3342
2090,2451,207,-3357
2091,2451,165,-3246
2092,2403,105,-3246
2093,2400,105,-3252
2094,2400,36,-3273
2095,2376,36,-3273
2096,2376,72,-3303
2097,2400,129,-3303
2098,2400,129,-3372
2099,2400,93,-3288
2100,2433,75,-3288
2101,2433,75,-3372
2102,2478,54,-3372
2103,2535,54,-3426
2104,2535,102,-3498
2105,2526,132,-3498
2106,2526,132,-3423
2107,2502,15,-3423
2108,2508,15,-3408
2109,2508,69,-3393
2110,2412,144,-3393
2111,2409,144,-3342
2112,2409,132,-3291
2113,2427,132,-3291
2114,2427,-66,-3237
2115,2445,78,-3237
2116,2457,78,-3297
2117,2457,6,-3273
2118,2481,87,-3273
2119,2481,87,-3366
2120,2454,9,-3366
2121,2415,9,-3312
2122,2415,-24,-3372
2123,2469,-57,-3372
2124,2469,-57,-3342
2125,2415,-6,-3342
2126,2448,-6,-3291
2127,2448,-36,-3270
2128,2496,0,-3270
2129,2520,0,-3246
2130,2520,6,-3246
2131,2520,6,-3246
2132,2520,63,-3150
2133,2397,-18,-3150
2134,2358,-18,-3177
2135,2358,-66,-3171
2136,2340,-66,-3171
2137,2340,-108,-3225
2138,2367,-69,-3225
2139,2418,-69,-3297
2140,2418,93,-3258
2141,2535,-33,-3258
2142,2535,-33,-3240
2143,2505,-138,-3240
2144,2454,-138,-3222
2145,2454,-177,-3360
2146,2487,-81,-3360
2147,2535,-81,-3411
2148,2535,-63,-3411
2149,2487,-63,-3321
2150,2487,-33,-3225
2151,2427,-51,-3225
2152,2490,-51,-3297
2153,2490,-45,-3312
2154,2454,-45,-3312
2155,2454,-66,-3297
2156,2517,-48,-3297
2157,2538,-48,-3252
2158,2538,-33,-3297
2159,2472,-81,-3297
2160,2472,-81,-3261
2161,2457,-141,-3261
2162,2448,-141,-3327
2163,2448,-111,-3321
2164,2523,-39,-3321
2165,2601,-39,-3276
2166,2601,-60,-3276
2167,2637,-60,-3300
2168,2637,6,-3363
2169,2535,-243,-3363
2170,2526,-243,-3468
2171,2526,-291,-3507
2172,2577,-291,-3507
2173,2577,-282,-3561
2174,2658,-78,-3561
2175,2691,-78,-3636
2176,2691,-165,-3618
2177,2706,-237,-3618
2178,2706,-237,-3666
2179,2691,-324,-3666
2180,2646,-324,-3633
2181,2646,-441,-3678
2182,2676,-453,-3678
2183,2604,-453,-3798
2184,2604,-420,-3798
2185,2664,-420,-3867
2186,2664,-426,-3882
2187,2778,-429,-3882
2188,2691,-429,-3957
2189,2691,-633,-3903
2190,2712,-633,-3903
2191,2712,-591,-3864
2192,2730,-633,-3864
2193,2892,-633,-3960
2194,2892,-597,-3987
2195,2952,-642,-3987
2196,2952,-642,-3939
2197,3003,-762,-3939
2198,2910,-762,-3879
2199,2910,-804,-3879
2200,2823,-843,-3879
2201,2757,-843,-3918
2202,2757,-1047,-3918
2203,2670,-1047,-3915
2204,2670,-1161,-3744
2205,2694,-1266,-3744
2206,2646,-1266,-3618
2207,2646,-1278,-3579
2208,2565,-1278,-3579
2209,2565,-1251,-3468
2210,2502,-1122,-3468
2211,2496,-1122,-3372
2212,2496,-1572,-3165
2213,2478,-1665,-3165
2214,2478,-1665,-3021
2215,2448,-1815,-3021
2216,2370,-1815,-2922
2217,2370,-1737,-2706
2218,2178,-1656,-2706
2219,2178,-1656,-2700
2220,2160,-1665,-2700
2221,2073,-1665,-2559
2222,2073,-2298,-2310
2223,1980,-2613,-2310
2224,1803,-2613,-2133
2225,1803,-2346,-1962
2226,1725,-2346,-1962
2227,1725,-2196,-1836
2228,1698,-1959,-1836
2229,1785,-1959,-1560
2230,1785,-2484,-1176
2231,1950,-2484,-1176
2232,1950,-2724,-915
2233,1767,-2706,-915
2234,1596,-2706,-654
2235,1596,-2628,-453
2236,1242,-2619,-453
2237,1242,-2619,-57
2238,1092,-2685,-57
2239,948,-2685,144
2240,948,-2703,486
2241,798,-2925,486
2242,837,-2925,816
2243,837,-2994,816
2244,915,-2994,1023
2245,915,-3000,1314
2246,1158,-2724,1314
2247,1173,-2724,1359
2248,1173,-2910,1452
2249,1005,-2910,1452
2250,1005,-2925,1467
2251,1095,-2850,1467
2252,1020,-2850,1563
2253,1020,-3186,1557
2254,735,-3186,1557
2255,735,-3315,1503
2256,651,-3249,1503
2257,474,-3249,1512
2258,474,-3312,1557
2259,369,-3501,1557
2260,369,-3501,1734
2261,606,-3204,1734
2262,555,-3204,1824
2263,555,-3057,1863
2264,366,-3096,1863
2265,522,-3096,1959
2266,522,-2808,1959
2267,537,-2808,2001
2268,537,-2937,2160
2269,300,-3168,2160
2270,105,-3168,2445
2271,105,-3000,2622
2272,-420,-3000,2622
2273,-420,-2724,2838
2274,-486,-2694,2838
2275,-576,-2694,3054
2276,-576,-2919,3210
2277,-498,-2928,3210
2278,-498,-2928,3369
2279,-678,-3093,3369
2280,-411,-3093,3696
2281,-411,-3120,3990
2282,-147,-2682,3990
2283,-285,-2682,4080
2284,-285,-2988,4080
2285,-168,-2988,4338
2286,-168,-3024,4461
2287,6,-2922,4461
2288,-72,-2922,4473
2289,-72,-3054,4311
2290,-372,-3054,4311
2291,-372,-2880,4026
2292,-885,-3009,4026
2293,-960,-3009,3801
2294,-960,-2988,3498
2295,-834,-3135,3498
2296,-834,-3135,3264
2297,-456,-3153,3264
2298,-150,-3153,3192
2299,-150,-3039,3018
2300,87,-3009,3018
2301,270,-3009,2937
2302,270,-2988,2937
2303,471,-2988,2997
2304,471,-2892,3039
2305,237,-3000,3039
2306,-12,-3000,3102
2307,-12,-3258,3198
2308,-78,-3258,3198
2309,-78,-3354,3399
2310,-42,-2943,3399
2311,87,-2943,3258
2312,87,-2835,3279
2313,243,-2934,3279
2314,243,-2934,3435
2315,405,-3039,3435
2316,279,-3039,3438
2317,279,-3030,3474
2318,90,-2892,3474
2319,90,-2892,3414
2320,111,-2973,3414
2321,21,-2973,3390
2322,21,-3075,3363
2323,69,-3159,3363
2324,-102,-3159,3273
2325,-102,-3021,3162
2326,-228,-3021,3162
2327,-228,-2907,2934
2328,-129,-3081,2934
2329,-102,-3081,2964
2330,-102,-3327,2823
2331,-147,-3327,2823
2332,-147,-3417,2652
2333,-150,-2997,2652
2334,-120,-2997,2415
2335,-120,-3147,2130
2336,-108,-3462,2130
2337,-108,-3462,1986
2338,-21,-3708,1986
2339,111,-3708,1695
2340,111,-3402,1293
2341,132,-3414,1293
2342,357,-3414,927
2343,357,-3090,927
2344,357,-3090,444
2345,357,-3312,225
2346,678,-3486,225
2347,1008,-3486,-108
2348,1008,-3594,-117
2349,1215,-3594,-117
2350,1215,-3330,-312
2351,1359,-2943,-312
2352,1497,-2943,-477
2353,1497,-2997,-573
2354,1746,-3141,-573
2355,1746,-3141,-675
2356,1767,-3285,-675
2357,1824,-3285,-705
2358,1824,-3387,-693
2359,1743,-3162,-693
2360,1743,-3162,-828
2361,1905,-2970,-828
2362,1830,-2970,-903
2363,1830,-2715,-1056
2364,1698,-2859,-1056
2365,1617,-2859,-1140
2366,1617,-3405,-1140
2367,1584,-3405,-1164
2368,1584,-3450,-1131
2369,1734,-3081,-1131
2370,1746,-3081,-1320
2371,1746,-2235,-1542
2372,1503,-2235,-1542
2373,1503,-2247,-1668
2374,1572,-2658,-1668
2375,1863,-2658,-1803
2376,1863,-2781,-1767
2377,1923,-2595,-1767
2378,1923,-2595,-1797
2379,1911,-2094,-1797
2380,1746,-2094,-2043
2381,1746,-1722,-2163
2382,1692,-2184,-2163
2383,1947,-2184,-2214
2384,1947,-2352,-2214
2385,1815,-2352,-2265
2386,1815,-2010,-2358
2387,2001,-1143,-2358
2388,2007,-1143,-2670
2389,2007,-972,-2841
2390,2139,-972,-2841
2391,2139,-1449,-2805
2392,2394,-1554,-2805
2393,2283,-1554,-2946
2394,2283,-1203,-3105
2395,2214,-1203,-3105
2396,2214,-759,-3297
2397,2211,-669,-3297
2398,2187,-669,-3441
2399,2187,-657,-3669
2400,2214,-663,-3669
2401,2214,-663,-3777
2402,2346,-708,-3777
2403,2307,-708,-3837
2404,2307,-519,-3882
2405,2352,-96,-3882
2406,2376,-96,-4008
2407,2376,-378,-4008
2408,2403,-378,-3978
2409,2403,-438,-3837
2410,2379,-336,-3837
2411,2379,-336,-3867
2412,2379,-150,-3912
2413,2484,-150,-3912
2414,2484,-213,-3873
2415,2610,-126,-3873
2416,2679,-126,-3894
2417,2679,-60,-3984
2418,2706,0,-3984
2419,2706,0,-4044
2420,2715,24,-4044
2421,2778,24,-4074
2422,2778,-45,-4053
2423,2988,-9,-4053
2424,3051,-9,-4068
2425,3051,153,-4068
2426,3090,153,-4068
2427,3090,114,-3993
2428,3060,144,-3993
2429,3060,144,-3933
2430,3060,114,-3804
2431,3072,114,-3804
2432,3072,258,-3714
2433,2874,180,-3714
2434,2739,180,-3669
2435,2739,138,-3642
2436,2589,138,-3642
2437,2589,213,-3528
2438,2574,180,-3528
2439,2646,180,-3468
2440,2646,165,-3372
2441,2724,180,-3372
2442,2724,180,-3258
2443,2607,279,-3258
2444,2586,279,-3165
2445,2586,267,-3156
2446,2502,228,-3156
2447,2535,228,-3165
2448,2535,186,-3165
2449,2487,186,-3051
2450,2487,159,-3066
2451,2376,147,-3066
2452,2427,147,-3081
2453,2427,237,-3075
2454,2517,237,-3075
2455,2517,216,-3156
2456,2568,240,-3156
2457,2634,240,-3102
2458,2634,240,-3066
2459,2694,198,-3066
2460,2694,198,-3105
2461,2673,168,-3105
2462,2622,168,-3117
2463,2622,231,-3150
2464,2577,153,-3150
2465,2577,153,-3105
2466,2601,165,-3105
2467,2640,165,-3105
2468,2640,192,-3150
2469,2730,258,-3150
2470,2739,258,-3147
2471,2739,315,-3111
2472,2712,315,-3111
2473,2712,180,-3081
2474,2601,177,-3081
2475,2643,177,-3141
2476,2643,231,-3156
2477,2655,249,-3156
2478,2655,249,-3192
2479,2778,213,-3192
2480,2706,213,-3156
2481,2706,216,-3150
2482,2622,192,-3150
2483,2622,192,-3132
2484,2670,249,-3132
2485,2712,249,-3147
2486,2712,246,-3096
2487,2664,219,-3096
2488,2523,219,-3102
2489,2523,258,-3102
2490,2592,258,-3027
2491,2592,261,-3102
2492,2643,240,-3102
2493,2637,240,-3102
2494,2637,246,-3042
2495,2583,246,-3042
2496,2583,210,-3087
2497,2640,240,-3087
2498,2628,240,-3087
2499,2628,228,-3051
2500,2715,195,-3051
2501,2715,195,-3060
2502,2670,192,-3060
2503,2616,192,-3057
2504,2616,216,-3087
2505,2703,255,-3087
2506,2733,255,-3027
2507,2733,264,-3027
2508,2733,264,-3030
2509,2733,315,-3090
2510,2739,267,-3090
2511,2733,267,-3030
2512,2733,195,-3057
2513,2712,195,-3057
2514,2712,156,-3072
2515,2727,336,-3072
2516,2688,336,-3030
2517,2688,294,-3120
2518,2673,264,-3120
2519,2673,264,-3117
2520,2628,249,-3117
2521,2661,249,-3141
2522,2661,240,-3081
2523,2664,300,-3081
2524,2664,300,-3117
2525,2706,261,-3117
2526,2721,261,-3096
2527,2721,255,-3126
2528,2703,288,-3126
2529,2712,288,-3036
2530,2712,321,-3036
2531,2592,321,-3105
2532,2592,231,-3105
2533,2601,186,-3105
2534,2664,186,-3162
2535,2664,189,-3177
2536,2766,189,-3177
2537,2766,261,-3195
2538,2898,330,-3195
2539,2841,330,-3120
2540,2841,315,-3087
2541,2724,318,-3087
2542,2724,318,-3081
2543,2670,258,-3081
2544,2697,258,-3135
2545,2697,291,-3105
2546,2721,357,-3105
2547,2721,357,-3090
2548,2733,300,-3090
2549,2715,300,-3000
2550,2715,291,-3030
2551,2637,342,-3030
2552,2646,342,-3027
2553,2646,258,-3027
2554,2670,258,-3036
2555,2670,258,-3105
2556,2622,285,-3105
2557,2670,285,-3120
2558,2670,231,-3060
2559,2745,231,-3060
2560,2745,270,-3075
2561,2748,270,-3075
2562,2688,270,-3081
2563,2688,279,-3102
2564,2685,288,-3102
2565,2685,288,-3045
2566,2688,288,-3045
2567,2706,288,-3057
2568,2706,294,-3027
2569,2757,240,-3027
2570,2757,240,-3012
2571,2772,258,-3012
2572,2742,258,-3147
2573,2742,345,-3216
2574,2835,336,-3216
2575,2895,336,-3288
2576,2895,267,-3288
2577,2904,267,-3222
2578,2904,186,-3378
2579,2928,258,-3378
2580,3087,258,-3588
2581,3087,474,-3900
2582,3249,474,-3900
2583,3249,270,-4023
2584,3480,-102,-4023
2585,3513,-102,-3939
2586,3513,-18,-4134
2587,3531,165,-4134
2588,3531,165,-4173
2589,3600,225,-4173
2590,3696,225,-4221
2591,3696,180,-4194
2592,3576,147,-4194
2593,3576,147,-4155
2594,3426,6,-4155
2595,3312,6,-4044
2596,3312,-117,-3957
2597,3135,60,-3957
2598,3087,60,-3873
2599,3087,-48,-3702
2600,3117,-48,-3702
2601,3117,-264,-3543
2602,2946,-303,-3543
2603,2808,-303,-3426
2604,2808,-336,-3306
2605,2748,-336,-3306
2606,2748,-420,-3237
2607,2703,-645,-3237
2608,2811,-645,-3027
2609,2811,-765,-2937
2610,2757,-816,-2937
2611,2757,-816,-2895
2612,2739,-1092,-2895
2613,2739,-1092,-2724
2614,2739,-1353,-2589
2615,2712,-1278,-2589
2616,2538,-1278,-2505
2617,2538,-1305,-2505
2618,2472,-1305,-2448
2619,2472,-1626,-2325
2620,2439,-1758,-2325
2621,2409,-1758,-2148
2622,2409,-1902,-2103
2623,2169,-1902,-2103
2624,2169,-2046,-1878
2625,2175,-1929,-1878
2626,2106,-1929,-1728
2627,2106,-1977,-1611
2628,2088,-1977,-1611
2629,2088,-2379,-1320
2630,1887,-2358,-1320
2631,1860,-2358,-1116
2632,1860,-2517,-960
2633,1809,-2436,-960
2634,1809,-2436,-753
2635,1641,-2292,-753
2636,1626,-2292,-612
2637,1626,-2496,-369
2638,1506,-2766,-369
2639,1503,-2766,-171
2640,1503,-2739,-171
2641,1434,-2739,48
2642,1434,-2541,129
2643,1248,-2640,129
2644,1212,-2640,381
2645,1212,-2655,621
2646,1224,-2655,621
2647,1224,-2847,840
2648,1158,-3168,840
2649,909,-3168,1032
2650,909,-3162,1188
2651,741,-3162,1188
2652,741,-3240,1272
2653,771,-3216,1272
2654,768,-3216,1362
2655,768,-3204,1479
2656,801,-3333,1479
2657,801,-3333,1608
2658,789,-3495,1608
2659,696,-3495,1608
2660,696,-3405,1653
2661,417,-3318,1653
2662,210,-3318,1674
2663,210,-3402,1674
2664,354,-3402,1773
2665,354,-3804,1770
2666,399,-3483,1770
2667,330,-3483,1863
2668,330,-3219,1854
2669,63,-3219,1854
2670,63,-3249,2034
2671,42,-3141,2034
2672,45,-3141,2160
2673,45,-3174,2286
2674,-144,-3534,2286
2675,-144,-3534,2571
2676,-300,-3252,2571
2677,-270,-3252,2763
2678,-270,-3309,3192
2679,-153,-3594,3192
2680,-600,-3594,3606
2681,-600,-3816,3606
2682,-792,-3816,4116
2683,-792,-3864,4377
2684,-930,-3522,4377
2685,-1047,-3522,4647
2686,-1047,-3744,4416
2687,-888,-3744,4416
2688,-888,-3603,4263
2689,-858,-3600,4263
2690,-567,-3600,3771
2691,-567,-3282,3213
2692,-417,-3423,3213
2693,-417,-3423,3012
2694,-93,-3660,3012
2695,234,-3660,2841
2696,234,-3798,2847
2697,198,-3261,2847
2698,198,-3261,2838
2699,198,-3195,2838
2700,249,-3195,2856
2701,249,-3303,2964
2702,345,-3513,2964
2703,414,-3513,3093
2704,414,-3588,2967
2705,375,-3588,2967
2706,375,-3348,2772
2707,162,-3219,2772
2708,-84,-3219,2571
2709,-84,-3303,2391
2710,-75,-3303,2391
2711,-75,-3456,2229
2712,-72,-3501,2229
2713,-78,-3501,1926
2714,-78,-3465,1728
2715,-99,-3348,1728
2716,-99,-3348,1503
2717,231,-3315,1503
2718,282,-3315,1314
2719,282,-3498,1167
2720,528,-3840,1167
2721,1041,-3840,972
2722,1041,-3279,972
2723,951,-3279,777
2724,951,-3186,615
2725,1194,-3510,615
2726,1224,-3510,579
2727,1224,-3828,465
2728,1404,-3828,465
2729,1404,-3933,288
2730,1443,-3408,288
2731,1449,-3408,135
2732,1449,-3339,-12
2733,1602,-3294,-12
2734,1602,-3294,-126
2735,1554,-3636,-126
2736,1551,-3636,-282
2737,1551,-3954,-327
2738,1464,-3825,-327
2739,1584,-3825,-321
2740,1584,-2718,-321
2741,1518,-2718,-720
2742,1518,-2748,-735
2743,1611,-3189,-735
2744,1602,-3189,-834
2745,1602,-3513,-909
2746,1707,-3513,-909
2747,1707,-3507,-1074
2748,1644,-2940,-1074
2749,1818,-2940,-1161
2750,1818,-2349,-1335
2751,2040,-2349,-1335
2752,2040,-2781,-1377
2753,1800,-3192,-1377
2754,1608,-3192,-1446
2755,1608,-3231,-1386
2756,1455,-2250,-1386
2757,1455,-2250,-1686
2758,1332,-1710,-1686
2759,1593,-1710,-1908
2760,1593,-1914,-2022
2761,2106,-2373,-2022
2762,2733,-2373,-2118
2763,2733,-2343,-2118
2764,2895,-2343,-2142
2765,2895,-1653,-2448
2766,2754,-1389,-2448
2767,2643,-1389,-2604
2768,2643,-1563,-2715
2769,2556,-1563,-2715
2770,2556,-2001,-2649
2771,2568,-1914,-2649
2772,2205,-1914,-2754
2773,2205,-1605,-2856
2774,1875,-1143,-2856
2775,1875,-1143,-3081
2776,1746,-1143,-3081
2777,2016,-1143,-3087
2778,2016,-1521,-3192
2779,2367,-1737,-3192
2780,2367,-1737,-3111
2781,2619,-1293,-3111
2782,2445,-1293,-3237
2783,2445,-354,-3408
2784,2250,-459,-3408
2785,2457,-459,-3441
2786,2457,-660,-3441
2787,2592,-660,-3423
2788,2592,-705,-3288
2789,2616,3,-3288
2790,2481,3,-3447
2791,2481,438,-3477
2792,2388,438,-3477
2793,2388,384,-3528
2794,2193,117,-3528
2795,1974,117,-3729
2796,1974,93,-3819
2797,1878,165,-3819
2798,1878,165,-3837
2799,1965,0,-3837
2800,1998,0,-3849
2801,1998,234,-3969
2802,2037,450,-3969
2803,2259,450,-4260
2804,2259,411,-4260
2805,2430,411,-4134
2806,2430,261,-4191
2807,2622,84,-4191
2808,2763,84,-4170
2809,2763,552,-4206
2810,2781,552,-4206
2811,2781,513,-4158
2812,2811,432,-4158
2813,2817,432,-4005
2814,2817,408,-4005
2815,2760,408,-4005
2816,2760,402,-3915
2817,2634,426,-3915
2818,2508,426,-3879
2819,2508,549,-3852
2820,2490,486,-3852
2821,2490,486,-3714
2822,2466,372,-3714
2823,2574,372,-3627
2824,2574,429,-3612
2825,2595,582,-3612
2826,2568,582,-3549
2827,2568,516,-3549
2828,2535,516,-3558
2829,2535,492,-3468
2830,2496,420,-3468
2831,2418,420,-3357
2832,2418,351,-3288
2833,2451,351,-3288
2834,2451,315,-3282
2835,2376,606,-3282
2836,2301,606,-3318
2837,2301,423,-3237
2838,2223,327,-3237
2839,2223,327,-3180
2840,2187,183,-3180
2841,2283,183,-3177
2842,2283,246,-3201
2843,2385,450,-3201
2844,2385,450,-3135
2845,2484,381,-3135
2846,2454,381,-3192
2847,2454,330,-3156
2848,2520,213,-3156
2849,2334,213,-3132
2850,2334,255,-3177
2851,2328,255,-3177
2852,2328,360,-3228
2853,2376,279,-3228
2854,2403,279,-3165
2855,2403,270,-3201
2856,2487,270,-3201
2857,2487,369,-3180
2858,2556,369,-3180
2859,2550,369,-3282
2860,2550,351,-3291
2861,2478,342,-3291
2862,2478,342,-3312
2863,2508,258,-3312
2864,2586,258,-3357
2865,2586,255,-3387
2866,2688,327,-3387
2867,2643,327,-3351
2868,2643,363,-3351
2869,2592,363,-3342
2870,2592,330,-3267
2871,2571,279,-3267
2872,2478,279,-3312
2873,2478,249,-3327
2874,2346,249,-3327
2875,2346,261,-3291
2876,2292,282,-3291
2877,2247,282,-3273
2878,2247,246,-3243
2879,2325,240,-3243
2880,2325,240,-3243
2881,2412,309,-3243
2882,2484,309,-3177
2883,2484,381,-3117
2884,2532,282,-3117
2885,2532,282,-3156
2886,2505,192,-3156
2887,2448,192,-3210
2888,2448,273,-3177
2889,2364,294,-3177
2890,2310,294,-3186
2891,2310,231,-3186
2892,2358,231,-3126
2893,2358,243,-3165
2894,2463,285,-3165
2895,2568,285,-3162
2896,2568,360,-3228
2897,2532,360,-3228
2898,2532,312,-3258
2899,2550,276,-3258
2900,2472,276,-3303
2901,2472,198,-3261
2902,2514,282,-3261
2903,2514,282,-3276
2904,2526,336,-3276
2905,2538,336,-3273
2906,2538,360,-3288
2907,2496,300,-3288
2908,2496,300,-3246
2909,2517,267,-3246
2910,2514,267,-3252
2911,2514,216,-3288
2912,2547,348,-3288
2913,2502,348,-3318
2914,2502,360,-3318
2915,2550,360,-3273
2916,2550,411,-3243
2917,2565,288,-3243
2918,2514,288,-3288
2919,2514,240,-3267
2920,2520,240,-3267
2921,2520,285,-3282
2922,2469,318,-3282
2923,2490,318,-3282
2924,2490,324,-3261
2925,2523,408,-3261
2926,2523,408,-3267
2927,2616,309,-3267
2928,2604,309,-3237
2929,2604,264,-3273
2930,2514,267,-3273
2931,2439,267,-3348
2932,2439,234,-3348
2933,2472,234,-3273
2934,2472,270,-3306
2935,2550,357,-3306
2936,2568,357,-3312
2937,2568,381,-3297
2938,2601,381,-3297
2939,2601,315,-3273
2940,2607,180,-3273
2941,2583,180,-3282
2942,2583,264,-3348
2943,2637,330,-3348
2944,2637,330,-3291
2945,2622,258,-3291
2946,2610,258,-3261
2947,2610,282,-3252
2948,2592,231,-3252
2949,2508,231,-3303
2950,2508,264,-3303
2951,2463,264,-3192
2952,2463,264,-3156
2953,2484,222,-3156
2954,2397,222,-3165
2955,2397,216,-3135
2956,2478,216,-3135
2957,2478,183,-3228
2958,2481,195,-3228
2959,2508,195,-3207
2960,2508,186,-3276
2961,2502,186,-3276
2962,2502,297,-3342
2963,2502,213,-3342
2964,2469,213,-3381
2965,2469,156,-3447
2966,2538,273,-3447
2967,2538,273,-3609
2968,2568,63,-3609
2969,2571,63,-3618
2970,2571,42,-3732
2971,2655,117,-3732
2972,2706,117,-3702
2973,2706,63,-3702
2974,2724,63,-3708
2975,2724,87,-3768
2976,2574,81,-3768
2977,2559,81,-3723
2978,2559,204,-3762
2979,2523,204,-3762
2980,2523,-108,-3693
2981,2583,-189,-3693
2982,2679,-189,-3774
2983,2679,-261,-3834
2984,2742,-201,-3834
2985,2742,-201,-3819
2986,2880,-240,-3819
2987,2952,-240,-3798
2988,2952,-354,-3774
2989,3018,-405,-3774
2990,2949,-405,-3759
2991,2949,-522,-3759
2992,2877,-522,-3774
2993,2877,-414,-3702
2994,2694,-561,-3702
2995,2523,-561,-3651
2996,2523,-756,-3558
2997,2289,-756,-3558
2998,2289,-741,-3528
2999,2229,-771,-3528
3000,2457,-771,-3453
3001,2457,-702,-3417
3002,2634,-1011,-3417
3003,2634,-1011,-3276
3004,2823,-1032,-3276
3005,2748,-1032,-3237
3006,2748,-1302,-3141
3007,2607,-1224,-3141
3008,2607,-1224,-3105
3009,2466,-1371,-3105
3010,2379,-1371,-3126
3011,2379,-1365,-3006
3012,2445,-1722,-3006
3013,2415,-1722,-2874
3014,2415,-1716,-2874
3015,2301,-1716,-2745
3016,2301,-1227,-2745
3017,2190,-1698,-2745
3018,2208,-1698,-2565
3019,2208,-1938,-2379
3020,2100,-1938,-2379
3021,2100,-2343,-2283
3022,1962,-2397,-2283
3023,1935,-2397,-2247
3024,1935,-2262,-2340
3025,1935,-2226,-2340
3026,1935,-2226,-2229
3027,1992,-2262,-2229
3028,2112,-2262,-2118
3029,2112,-2268,-2079
3030,2163,-2745,-2079
3031,2163,-2745,-1863
3032,2301,-2811,-1863
3033,2034,-2811,-1797
3034,2034,-2757,-1746
3035,1929,-2781,-1746
3036,1713,-2781,-1662
3037,1713,-2784,-1557
3038,1746,-2784,-1557
3039,1746,-3114,-1431
3040,1713,-3261,-1431
3041,1527,-3261,-1296
3042,1527,-3285,-1161
3043,1578,-3252,-1161
3044,1578,-3252,-1026
3045,1755,-3141,-1026
3046,1587,-3141,-813
3047,1587,-3423,-549
3048,1827,-3384,-549
3049,1827,-3384,-372
3050,1833,-3105,-372
3051,1674,-3105,-168
3052,1674,-3198,225
3053,1572,-3105,225
3054,1227,-3105,441
3055,1227,-3219,672
3056,867,-3219,672
3057,867,-3108,1011
3058,732,-2943,1011
3059,552,-2943,1197
3060,552,-3036,1503
3061,381,-3036,1503
3062,381,-3084,1623
3063,345,-2949,1623
3064,279,-2949,1725
3065,279,-2919,1860
3066,300,-3096,1860
3067,300,-3096,2115
3068,288,-2949,2115
3069,312,-2949,2106
3070,312,-2817,2070
3071,261,-2805,2070
3072,315,-2805,2130
3073,315,-3183,2130
3074,249,-3183,2262
3075,249,-3117,2367
3076,192,-2856,2367
3077,456,-2856,2511
3078,456,-2328,2661
3079,303,-2328,2661
3080,303,-2235,3270
3081,177,-2223,3270
3082,-591,-2223,3513
3083,-591,-1926,3852
3084,-915,-1680,3852
3085,-915,-1680,4005
3086,-1134,-1731,4005
3087,-1221,-1731,4356
3088,-1221,-1668,4527
3089,-1341,-1407,4527
3090,-1341,-1407,4563
3091,-1311,-1365,4563
3092,-1263,-1365,4473
3093,-1263,-1494,4452
3094,-1044,-1461,4452
3095,-957,-1461,4206
3096,-957,-1569,4155
3097,-858,-1569,4155
3098,-858,-1698,3951
3099,-762,-1806,3951
3100,-696,-1806,3882
3101,-696,-1914,4002
3102,-738,-1833,4002
3103,-738,-1833,4107
3104,-852,-1689,4107
3105,-930,-1689,4326
3106,-930,-1341,4494
3107,-942,-1095,4494
3108,-942,-1095,4557
3109,-1026,-1149,4557
3110,-1113,-1149,4869
3111,-1113,-1176,5010
3112,-1026,-1308,5010
3113,-1080,-1308,4998
3114,-1080,-1275,5043
3115,-978,-1275,5043
3116,-978,-1095,4998
3117,-999,-1236,4998
3118,-1104,-1236,4767
3119,-1104,-1371,4437
3120,-1368,-1371,4437
3121,-1368,-1686,4311
3122,-1362,-2085,4311
3123,-1116,-2085,4146
3124,-1116,-1872,3945
3125,-1128,-1662,3945
3126,-1128,-1662,3684
3127,-750,-1662,3684
3128,-339,-1662,3549
3129,-339,-1812,3300
3130,21,-2040,3300
3131,186,-2040,2877
3132,186,-2271,2688
3133,69,-2271,2688
3134,69,-2523,2472
3135,147,-2367,2472
3136,147,-2367,2331
3137,147,-2487,2166
3138,366,-2487,2166
3139,366,-2445,1803
3140,450,-2694,1803
3141,714,-2694,1635
3142,714,-2832,1518
3143,906,-2784,1518
3144,906,-2784,1248
3145,1191,-2583,1248
3146,1263,-2583,942
3147,1263,-2589,624
3148,1356,-2898,624
3149,1398,-2898,495
3150,1398,-3159,495
3151,1503,-3159,174
3152,1503,-3183,-12
3153,1365,-2976,-12
3154,1446,-2976,-243
3155,1446,-2886,-378
3156,1383,-2886,-378
3157,1383,-2823,-489
3158,1437,-3006,-489
3159,1962,-3006,-483
3160,1962,-2862,-522
3161,2199,-1959,-522
3162,2199,-1959,-759
3163,2607,-1836,-759
3164,2730,-1836,-963
3165,2730,-2169,-1050
3166,2616,-2409,-1050
3167,2175,-2409,-1191
3168,2175,-2070,-1191
3169,1620,-2070,-1485
3170,1620,-1410,-1923
3171,1782,-1227,-1923
3172,2421,-1227,-2139
3173,2421,-1401,-2538
3174,3051,-1401,-2538
3175,3051,-1203,-2850
3176,3408,-831,-2850
3177,3324,-831,-3180
3178,3324,-783,-3579
3179,2955,-900,-3579
3180,2955,-900,-3717
3181,3054,-1368,-3717
3182,3000,-1368,-3654
3183,3000,-1140,-3783
3184,2937,-786,-3783
3185,2937,-786,-3714
3186,2910,-756,-3714
3187,2916,-756,-3687
3188,2916,-1005,-3471
3189,2967,-1206,-3471
3190,3018,-1206,-3246
3191,3018,-786,-3246
3192,2916,-786,-3306
3193,2916,-303,-3210
3194,2760,-396,-3210
3195,2646,-396,-3021
3196,2646,-453,-2940
3197,2481,-453,-2940
3198,2481,-435,-2895
3199,2274,-372,-2895
3200,2196,-372,-2934
3201,2196,63,-3090
3202,2463,351,-3090
3203,2463,351,-3165
3204,2904,429,-3165
3205,3192,429,-3321
3206,3192,342,-3753
3207,2961,552,-3753
3208,2961,552,-4164
3209,3051,474,-4164
3210,3261,474,-4476
3211,3261,18,-4446
3212,3588,-39,-4446
3213,3642,-39,-4629
3214,3642,486,-4629
3215,3654,486,-4446
3216,3654,789,-4164
3217,3480,630,-4164
3218,3021,630,-3774
3219,3021,495,-3579
3220,2835,495,-3579
3221,2835,606,-3402
3222,2691,528,-3402
3223,2517,528,-3342
3224,2517,486,-3162
3225,2538,546,-3162
3226,2538,546,-3228
3227,2634,474,-3228
3228,2793,474,-3150
3229,2793,555,-3156
3230,2910,540,-3156
3231,2766,540,-3045
3232,2766,579,-3045
3233,2712,579,-3072
3234,2712,498,-3066
3235,2619,399,-3066
3236,2520,399,-3000
3237,2520,525,-3006
3238,2574,525,-3006
3239,2574,519,-2985
3240,2472,459,-2985
3241,2514,459,-2925
3242,2514,459,-3057
3243,2505,519,-3057
3244,2505,519,-3096
3245,2595,495,-3096
3246,2646,495,-3072
3247,2646,522,-3066
3248,2676,480,-3066
3249,2676,480,-3030
3250,2745,390,-3030
3251,2679,390,-3102
3252,2679,528,-3105
3253,2595,549,-3105
3254,2637,549,-3087
3255,2637,591,-3087
3256,2607,591,-3087
3257,2607,573,-3045
3258,2703,477,-3045
3259,2799,477,-3060
3260,2799,648,-3042
3261,2826,648,-3042
3262,2826,519,-3030
3263,2592,531,-3030
3264,2625,531,-2997
3265,2625,537,-3030
3266,2646,492,-3030
3267,2646,492,-3006
3268,2676,525,-3006
3269,2817,525,-3072
3270,2817,636,-3036
3271,2922,702,-3036
3272,2922,702,-3102
3273,2934,594,-3102
3274,2724,594,-3015
3275,2724,480,-3030
3276,2670,501,-3030
3277,2673,501,-3102
3278,2673,645,-3102
3279,2793,645,-3060
3280,2793,687,-3021
3281,2943,621,-3021
3282,2865,621,-3042
3283,2865,546,-3090
3284,2814,546,-3090
3285,2814,498,-3120
3286,2772,468,-3120
3287,2847,468,-3102
3288,2847,636,-3057
3289,2922,621,-3057
3290,2922,621,-3006
3291,2844,633,-3006
3292,2694,633,-2985
3293,2694,585,-2952
3294,2703,543,-2952
3295,2664,543,-2982
3296,2664,447,-2982
3297,2658,447,-2970
3298,2658,465,-2997
3299,2577,567,-2997
3300,2637,567,-3021
3301,2637,486,-3012
3302,2634,486,-3012
3303,2634,510,-3000
3304,2655,459,-3000
3305,2694,459,-2910
3306,2694,579,-2976
3307,2571,612,-2976
3308,2571,612,-2991
3309,2589,411,-2991
3310,2640,411,-2976
3311,2640,441,-3030
3312,2727,432,-3030
3313,2724,432,-3051
3314,2724,462,-3051
3315,2829,462,-2991
3316,2829,573,-2940
3317,2778,522,-2940
3318,2775,522,-2952
3319,2775,519,-2946
3320,2673,519,-2946
3321,2673,477,-2997
3322,2673,351,-2997
3323,2706,351,-2985
3324,2706,390,-3027
3325,2739,489,-3027
3326,2739,489,-3057
3327,2877,555,-3057
3328,2853,555,-2997
3329,2853,567,-2976
3330,2814,408,-2976
3331,2814,408,-2967
3332,2754,372,-2967
3333,2706,372,-3036
3334,2706,501,-3060
3335,2724,465,-3060
3336,2727,465,-3021
3337,2727,483,-3021
3338,2703,483,-3000
3339,2703,435,-2922
3340,2799,408,-2922
3341,2781,408,-2970
3342,2781,495,-2910
3343,2694,495,-2910
3344,2694,510,-2901
3345,2634,423,-2901
3346,2574,423,-2955
3347,2574,465,-2937
3348,2646,411,-2937
3349,2646,411,-2946
3350,2796,489,-2946
3351,2775,489,-2970
3352,2775,489,-2952
3353,2775,435,-2952
3354,2724,435,-2976
3355,2724,417,-2976
3356,2706,417,-3012
3357,2706,468,-3006
3358,2724,516,-3006
3359,2673,516,-2982
3360,2673,528,-2985
3361,2676,528,-2985
3362,2676,462,-2907
3363,2679,468,-2907
3364,2694,468,-2967
3365,2694,486,-2976
3366,2703,522,-2976
3367,2703,522,-3090
3368,2715,561,-3090
3369,2679,561,-3027
3370,2679,483,-2982
3371,2721,513,-2982
3372,2679,513,-3012
3373,2679,519,-3012
3374,2712,519,-3090
3375,2712,573,-3090
3376,2733,525,-3090
3377,2826,525,-3066
3378,2826,501,-3132
3379,2850,501,-3132
3380,2850,564,-3132
3381,2928,630,-3132
3382,2934,630,-3096
3383,2934,588,-3081
3384,2868,489,-3081
3385,2868,489,-3075
3386,2835,585,-3075
3387,2781,585,-3081
3388,2781,603,-3030
3389,2835,624,-3030
3390,2865,624,-2970
3391,2865,618,-2970
3392,2826,618,-2907
3393,2826,687,-2889
3394,2715,615,-2889
3395,2676,615,-2910
3396,2676,624,-2916
3397,2676,624,-2916
3398,2676,573,-2901
3399,2688,588,-2901
3400,2694,588,-2850
3401,2694,597,-2874
3402,2724,687,-2874
3403,2724,687,-2799
3404,2739,603,-2799
3405,2733,603,-2859
3406,2733,600,-2940
3407,2757,603,-2940
3408,2712,603,-2895
3409,2712,588,-2895
3410,2712,588,-2985
3411,2712,642,-2940
3412,2742,621,-2940
3413,2808,621,-3027
3414,2808,630,-3006
3415,2844,630,-3006
3416,2844,675,-2985
3417,2874,696,-2985
3418,2859,696,-2982
3419,2859,654,-2952
3420,2781,615,-2952
3421,2781,615,-2991
3422,2715,603,-2991
3423,2748,603,-3030
3424,2748,651,-3066
3425,2835,729,-3066
3426,2835,729,-2997
3427,2865,696,-2997
3428,2877,696,-3006
3429,2877,546,-3111
3430,2853,690,-3111
3431,2895,690,-3336
3432,2895,696,-3426
3433,2973,696,-3426
3434,2973,633,-3558
3435,3024,654,-3558
3436,3024,654,-3687
3437,3024,432,-3924
3438,3162,432,-3924
3439,3162,537,-3999
3440,3348,819,-3999
3441,3270,819,-4221
3442,3270,504,-4251
3443,3237,345,-4251
3444,3237,345,-4221
3445,3180,384,-4221
3446,3174,384,-4269
3447,3174,345,-4341
3448,3192,222,-4341
3449,3270,222,-4341
3450,3270,186,-4194
3451,3222,186,-4194
3452,3222,237,-4143
3453,3174,-42,-4143
3454,3141,-42,-4029
3455,3141,-198,-3933
3456,3057,-198,-3933
3457,3057,-93,-3834
3458,2931,-300,-3834
3459,2886,-300,-3792
3460,2886,-429,-3693
3461,2904,-567,-3693
3462,2904,-567,-3618
3463,2805,-627,-3618
3464,2742,-627,-3528
3465,2742,-813,-3393
3466,2796,-1038,-3393
3467,2817,-1038,-3243
3468,2817,-1434,-3120
3469,2766,-1434,-3120
3470,2766,-1368,-3090
3471,2601,-1365,-3090
3472,2556,-1365,-2910
3473,2556,-1287,-2907
3474,2490,-1287,-2907
3475,2490,-1659,-2499
3476,2496,-1974,-2499
3477,2376,-1974,-2268
3478,2376,-2190,-1998
3479,2283,-2124,-1998
3480,2283,-2124,-1788
3481,2073,-2130,-1788
3482,2100,-2130,-1485
3483,2100,-2109,-1251
3484,2247,-2043,-1251
3485,2139,-2043,-744
3486,2139,-2190,-744
3487,2070,-2190,-477
3488,2070,-2538,-183
3489,1830,-2499,-183
3490,1716,-2499,108
3491,1716,-2310,399
3492,1551,-2310,399
3493,1551,-1977,777
3494,1230,-2079,777
3495,1167,-2079,1023
3496,1167,-2268,1332
3497,1173,-2385,1332
3498,1173,-2385,1623
3499,1182,-2379,1623
3500,759,-2379,1956
3501,759,-2175,2292
3502,483,-1761,2292
3503,483,-1761,2505
3504,264,-1863,2505
3505,375,-1863,2688
3506,375,-1965,2838
3507,543,-1950,2838
3508,594,-1950,2913
3509,594,-2016,2871
3510,510,-2016,2871
3511,510,-1932,2889
3512,597,-1866,2889
3513,489,-1866,3078
3514,489,-1548,3093
3515,363,-1548,3093
3516,363,-1482,3255
3517,477,-1587,3255
3518,426,-1587,3465
3519,426,-1497,3606
3520,45,-1362,3606
3521,45,-1362,3852
3522,-300,-1260,3852
3523,-306,-1260,3960
3524,-306,-1152,4212
3525,-270,-1143,4212
3526,-222,-1143,4383
3527,-222,-1107,4482
3528,-372,-1107,4482
3529,-372,-927,4614
3530,-309,-741,4614
3531,-456,-741,4707
3532,-456,-735,4593
3533,-543,-735,4593
3534,-543,-747,4614
3535,-600,-807,4614
3536,-648,-807,4653
3537,-648,-813,4704
3538,-783,-792,4704
3539,-783,-792,4692
3540,-786,-762,4692
3541,-678,-762,4773
3542,-678,-582,4788
3543,-579,-534,4788
3544,-609,-534,4860
3545,-609,-627,4860
3546,-477,-627,4869
3547,-477,-825,4698
3548,-573,-822,4698
3549,-477,-822,4689
3550,-477,-912,4563
3551,-531,-912,4563
3552,-531,-1029,4509
3553,-393,-1002,4509
3554,-453,-1002,4392
3555,-453,-1131,4242
3556,-471,-1326,4242
3557,-471,-1326,4203
3558,-474,-1413,4203
3559,-444,-1413,4173
3560,-444,-1434,4095
3561,-342,-1305,4095
3562,-120,-1305,3981
3563,-120,-1206,3981
3564,81,-1206,3975
3565,81,-1422,3780
3566,384,-1758,3780
3567,597,-1758,3705
3568,597,-1890,3513
3569,507,-1890,3513
3570,507,-1968,3390
3571,501,-2040,3390
3572,621,-2040,3210
3573,621,-2136,2919
3574,744,-2388,2919
3575,744,-2388,2763
3576,990,-2568,2763
3577,1173,-2568,2637
3578,1173,-2673,2397
3579,1254,-2583,2397
3580,1254,-2583,1995
3581,1182,-2622,1995
3582,1092,-2622,1743
3583,1092,-2772,1428
3584,1317,-2964,1428
3585,1335,-2964,1158
3586,1335,-2787,1158
3587,1539,-2787,897
3588,1539,-2715,579
3589,1464,-2643,579
3590,1575,-2643,300
3591,1575,-2976,123
3592,1701,-2976,123
3593,1701,-3024,-81
3594,1560,-2946,-81
3595,1677,-2946,-228
3596,1677,-3003,-297
3597,1809,-2793,-297
3598,1809,-2793,-432
3599,1767,-2760,-432
3600,1731,-2760,-537
3601,1731,-2877,-624
3602,1923,-2829,-624
3603,2130,-2829,-654
3604,2130,-2595,-654
3605,2403,-2595,-765
3606,2403,-2277,-894
3607,2349,-2025,-894
3608,2268,-2025,-1041
3609,2268,-1803,-1380
3610,2187,-1803,-1380
3611,2187,-1926,-1572
3612,2262,-1890,-1572
3613,2319,-1890,-1818
3614,2319,-1323,-2094
3615,2484,-1044,-2094
3616,2484,-1044,-2394
3617,2694,-1041,-2394
3618,2712,-1041,-2775
3619,2712,-1149,-2889
3620,2859,-1017,-2889
3621,2859,-1017,-3075
3622,2547,-873,-3075
3623,2379,-873,-3222
3624,2379,-603,-3612
3625,2415,-885,-3612
3626,2694,-885,-3633
3627,2694,-753,-3633
3628,2724,-753,-3618
3629,2724,-423,-3708
3630,2652,-363,-3708
3631,2445,-363,-3657
3632,2445,-504,-3687
3633,2409,-504,-3687
3634,2409,-339,-3633
3635,2397,-330,-3633
3636,2592,-330,-3567
3637,2592,-270,-3693
3638,2676,-18,-3693
3639,2676,-18,-3717
3640,2715,9,-3717
3641,2916,9,-3759
3642,2916,66,-3798
3643,2928,93,-3798
3644,2643,93,-3834
3645,2643,165,-3834
3646,2637,165,-3975
3647,2637,69,-4050
3648,2715,6,-4050
3649,3015,6,-4014
3650,3015,273,-4038
3651,3189,273,-4038
3652,3189,537,-4023
3653,3141,537,-4023
3654,3048,537,-4038
3655,3048,246,-3975
3656,2904,297,-3975
3657,2904,297,-3999
3658,2760,450,-3999
3659,2694,450,-4014
3660,2694,594,-3930
3661,2772,654,-3930
3662,2817,654,-3879
3663,2817,489,-3879
3664,2748,489,-3819
3665,2748,465,-3837
3666,2652,408,-3837
3667,2661,408,-3744
3668,2661,399,-3669
3669,2622,399,-3669
3670,2622,684,-3573
3671,2601,687,-3573
3672,2535,687,-3441
3673,2535,573,-3408
3674,2340,573,-3408
3675,2340,453,-3297
3676,2262,471,-3297
3677,2229,471,-3363
3678,2229,513,-3258
3679,2289,531,-3258
3680,2289,531,-3171
3681,2379,720,-3171
3682,2550,720,-3237
3683,2550,549,-3156
3684,2436,414,-3156
3685,2346,414,-3072
3686,2346,351,-3072
3687,2352,351,-2991
3688,2352,402,-2970
3689,2604,537,-2970
3690,2757,537,-2886
3691,2757,714,-2814
3692,2853,714,-2814
3693,2853,438,-2721
3694,2790,324,-2721
3695,2703,324,-2814
3696,2703,261,-2922
3697,2643,213,-2922
3698,2643,213,-2970
3699,2574,276,-2970
3700,2715,276,-3030
3701,2715,444,-3126
3702,2850,327,-3126
3703,2979,327,-3081
3704,2979,243,-3081
3705,2928,243,-3027
3706,2928,87,-3036
3707,2853,141,-3036
3708,2703,141,-3030
3709,2703,423,-2982
3710,2670,423,-2982
3711,2670,351,-2871
3712,2673,324,-2871
3713,2760,324,-2856
3714,2760,135,-2859
3715,2919,228,-2859
3716,2919,228,-2907
3717,2952,435,-2907
3718,2970,435,-2844
3719,2970,417,-2889
3720,2850,441,-2889
3721,2814,441,-2856
3722,2814,492,-2856
3723,2730,492,-2871
3724,2730,528,-2931
3725,2640,636,-2931
3726,2547,636,-2937
3727,2547,717,-2961
3728,2565,717,-2961
3729,2565,759,-2874
3730,2553,768,-2874
3731,2652,768,-2931
3732,2652,819,-2844
3733,2694,825,-2844
3734,2694,825,-2982
3735,2688,939,-2982
3736,2577,939,-2961
3737,2577,876,-2916
3738,2628,789,-2916
3739,2628,789,-2976
3740,2721,723,-2976
3741,2892,723,-2931
3742,2892,705,-2880
3743,3042,825,-2880
3744,3171,825,-2931
3745,3171,1059,-2931
3746,3087,1059,-2907
3747,3087,1080,-2937
3748,2841,828,-2937
3749,2841,828,-3012
3750,2841,690,-3135
3751,2949,690,-3135
3752,2949,666,-3210
3753,3123,855,-3210
3754,3102,855,-3387
3755,3102,1002,-3306
3756,3081,840,-3306
3757,3081,840,-3291
3758,2811,645,-3291
3759,2592,645,-3333
3760,2592,627,-3258
3761,2397,651,-3258
3762,2397,651,-3111
3763,2436,777,-3111
3764,2490,777,-2925
3765,2490,831,-2835
3766,2427,768,-2835
3767,2250,768,-2670
3768,2250,573,-2670
3769,2211,573,-2553
3770,2211,690,-2691
3771,2280,771,-2691
3772,2445,771,-2694
3773,2445,792,-2814
3774,2574,792,-2814
3775,2574,765,-2856
3776,2616,561,-2856
3777,2640,561,-2901
3778,2640,537,-3006
3779,2616,420,-3006
3780,2616,420,-3150
3781,2640,612,-3150
3782,2586,612,-3243
3783,2586,732,-3228
3784,2625,588,-3228
3785,2619,588,-3216
3786,2619,630,-3216
3787,2577,630,-3261
3788,2577,600,-3276
3789,2670,681,-3276
3790,2616,681,-3366
3791,2616,717,-3378
3792,2463,717,-3378
3793,2463,708,-3441
3794,2574,597,-3441
3795,2739,597,-3261
3796,2739,636,-3162
3797,2892,822,-3162
3798,2892,822,-3180
3799,2799,984,-3180
3800,2586,984,-3231
3801,2586,906,-3150
3802,2400,549,-3150
3803,2454,549,-3306
3804,2454,366,-3306
3805,2574,366,-3321
3806,2574,630,-3417
3807,2919,936,-3417
3808,3189,936,-3396
3809,3189,912,-3687
3810,3156,912,-3687
3811,3156,741,-3960
3812,2928,393,-3960
3813,3135,393,-4170
3814,3135,243,-4350
3815,3444,630,-4350
3816,3444,630,-4605
3817,3549,849,-4605
3818,3468,849,-4776
3819,3468,600,-4785
3820,3348,624,-4785
3821,3246,624,-4746
3822,3246,453,-4746
3823,3150,453,-4857
3824,3150,399,-4836
3825,3051,537,-4836
3826,2901,537,-4785
3827,2901,318,-4707
3828,2979,318,-4707
3829,2979,273,-4575
3830,2955,423,-4575
3831,2934,423,-4449
3832,2934,120,-4311
3833,2904,120,-4311
3834,2904,-90,-4143
3835,2892,-441,-4143
3836,2796,-441,-4035
3837,2796,-465,-3828
3838,2637,-456,-3828
3839,2637,-456,-3681
3840,2526,-555,-3681
3841,2514,-555,-3441
3842,2514,-924,-3117
3843,2313,-999,-3117
3844,2091,-999,-2907
3845,2091,-1329,-2709
3846,1869,-1329,-2709
3847,1869,-1422,-2400
3848,1899,-1608,-2400
3849,1692,-1608,-2079
3850,1692,-1635,-1713
3851,1641,-2031,-1713
3852,1641,-2031,-1335
3853,1566,-1989,-1335
3854,1437,-1989,-1074
3855,1437,-2019,-783
3856,1542,-1962,-783
3857,1542,-1962,-438
3858,1335,-2169,-438
3859,1650,-2169,0
3860,1650,-2373,330
3861,1719,-2337,330
3862,1281,-2337,681
3863,1281,-2145,681
3864,1164,-2145,891
3865,1164,-2097,1131
3866,1269,-1980,1131
3867,1209,-1980,1497
3868,1209,-2307,1890
3869,1113,-2307,1890
3870,1113,-2517,2079
3871,1098,-2283,2079
3872,1125,-2283,2214
3873,1125,-1887,2397
3874,966,-1953,2397
3875,966,-1953,2628
3876,852,-1758,2628
3877,819,-1758,2718
3878,819,-1620,2811
3879,711,-1569,2811
3880,750,-1569,2877
3881,750,-1560,2877
3882,660,-1560,3003
3883,660,-1398,3258
3884,483,-1203,3258
3885,207,-1203,3555
3886,207,-756,3891
3887,39,-756,3891
3888,39,-525,4086
3889,36,-384,4086
3890,-141,-384,4368
3891,-141,-345,4617
3892,-108,-192,4617
3893,-108,-192,4680
3894,-141,-225,4680
3895,-366,-225,4794
3896,-366,-252,4908
3897,-711,-87,4908
3898,-582,-87,5100
3899,-582,24,5100
3900,-435,24,5295
3901,-435,-27,5211
3902,-333,-6,5211
3903,-627,-6,5259
3904,-627,-36,5355
3905,-720,-36,5355
3906,-720,-297,5301
3907,-684,-246,5301
3908,-687,-246,5280
3909,-687,-312,5196
3910,-717,-372,5196
3911,-717,-372,5076
3912,-693,-609,5076
3913,-435,-609,4944
3914,-435,-825,4728
3915,-285,-813,4728
3916,-285,-813,4548
3917,-147,-777,4548
3918,-135,-777,4317
3919,-135,-795,4110
3920,-177,-894,4110
3921,63,-894,3966
3922,63,-942,3705
3923,282,-942,3705
3924,282,-1053,3408
3925,381,-1359,3408
3926,591,-1359,3177
3927,591,-1629,2988
3928,1020,-1629,2988
3929,1020,-1434,2571
3930,1122,-1560,2571
3931,1347,-1560,2184
3932,1347,-1935,1959
3933,1644,-2298,1959
3934,1644,-2298,1695
3935,1860,-2361,1695
3936,1743,-2361,1377
3937,1743,-2280,1101
3938,1851,-2511,1101
3939,1971,-2511,945
3940,1971,-2589,945
3941,1878,-2589,672
3942,1878,-2592,414
3943,1953,-2598,414
3944,2262,-2598,180
3945,2262,-2724,63
3946,2298,-2724,63
3947,2298,-2859,0
3948,2412,-2790,0
3949,2505,-2790,-132
3950,2505,-2640,-318
3951,2610,-2397,-318
3952,2610,-2397,-633
3953,2499,-2226,-633
3954,2376,-2226,-819
3955,2376,-2592,-1074
3956,2301,-2562,-1074
3957,2301,-2562,-1254
3958,2376,-2109,-1254
3959,2388,-2109,-1773
3960,2388,-1977,-1992
3961,2601,-2088,-1992
3962,2469,-2088,-2244
3963,2469,-2127,-2244
3964,2439,-2127,-2553
3965,2439,-2214,-2568
3966,2415,-2232,-2568
3967,2457,-2232,-2514
3968,2457,-2004,-2565
3969,2484,-2004,-2565
3970,2484,-1737,-2865
3971,2415,-1575,-2865
3972,2364,-1575,-3042
3973,2364,-1752,-3051
3974,2451,-1878,-3051
3975,2451,-1878,-3057
3976,2364,-1632,-3057
3977,2502,-1632,-3165
3978,2502,-1560,-3207
3979,2370,-1395,-3207
3980,2370,-1395,-3045
3981,2370,-1188,-3045
3982,2208,-1188,-3111
3983,2208,-1218,-3090
3984,2151,-1107,-3090
3985,2181,-1107,-3057
3986,2181,-606,-3180
3987,2238,-606,-3180
3988,2238,-435,-3207
3989,2490,-438,-3207
3990,2421,-438,-3423
3991,2421,-357,-3633
3992,2274,-240,-3633
3993,2274,-240,-3954
3994,2139,-342,-3954
3995,2121,-342,-4179
3996,2121,-351,-4350
3997,2187,-345,-4350
3998,2292,-345,-4584
3999,2292,-279,-4584
4000,2496,-279,-4665
4001,2496,-342,-4515
4002,2610,-408,-4515
4003,2601,-408,-4464
4004,2601,-69,-4506
4005,2538,-69,-4506
4006,2538,162,-4449
4007,2433,57,-4449
4008,2313,57,-4269
4009,2313,-57,-4215
4010,2256,36,-4215
4011,2256,36,-4173
4012,2331,222,-4173
4013,2481,222,-4119
4014,2481,240,-3945
4015,2565,270,-3945
4016,2508,270,-3813
4017,2508,219,-3813
4018,2481,219,-3762
4019,2481,132,-3663
4020,2418,108,-3663
4021,2388,108,-3594
4022,2388,126,-3549
4023,2403,126,-3549
4024,2403,276,-3468
4025,2445,222,-3468
4026,2457,222,-3417
4027,2457,261,-3468
4028,2256,183,-3468
4029,2256,183,-3393
4030,2172,93,-3393
4031,2109,93,-3357
4032,2109,135,-3351
4033,2232,147,-3351
4034,2232,147,-3348
4035,2388,165,-3348
4036,2394,165,-3351
4037,2394,273,-3378
4038,2433,198,-3378
4039,2340,198,-3348
4040,2340,111,-3297
4041,2265,111,-3297
4042,2265,30,-3306
4043,2193,132,-3306
4044,2250,132,-3426
4045,2250,213,-3348
4046,2358,213,-3348
4047,2358,261,-3267
4048,2301,162,-3267
4049,2292,162,-3372
4050,2292,93,-3333
4051,2238,84,-3333
4052,2238,84,-3282
4053,2319,114,-3282
4054,2349,114,-3357
4055,2349,240,-3231
4056,2466,225,-3231
4057,2466,225,-3243
4058,2385,246,-3243
4059,2280,246,-3267
4060,2280,168,-3288
4061,2223,96,-3288
4062,2259,96,-3366
4063,2259,105,-3378
4064,2361,105,-3378
4065,2361,168,-3411
4066,2466,330,-3411
4067,2553,330,-3372
4068,2553,342,-3288
4069,2466,342,-3288
4070,2466,291,-3282
4071,2394,186,-3282
4072,2388,186,-3348
4073,2388,93,-3288
4074,2259,108,-3288
4075,2259,108,-3306
4076,2295,213,-3306
4077,2439,213,-3387
4078,2439,381,-3333
4079,2517,339,-3333
4080,2568,339,-3276
4081,2568,243,-3276
4082,2403,243,-3312
4083,2403,222,-3312
4084,2301,183,-3312
4085,2388,183,-3327
4086,2388,153,-3327
4087,2469,153,-3327
4088,2469,270,-3342
4089,2571,330,-3342
4090,2430,330,-3387
4091,2430,285,-3366
4092,2388,183,-3366
4093,2388,183,-3342
4094,2358,159,-3342
4095,2364,159,-3366
4096,2364,240,-3372
4097,2451,324,-3372
4098,2490,324,-3396
4099,2490,276,-3396
4100,2445,276,-3363
4101,2445,237,-3306
4102,2433,210,-3306
4103,2331,210,-3327
4104,2331,255,-3318
4105,2319,255,-3318
4106,2319,216,-3312
4107,2334,258,-3312
4108,2433,258,-3291
4109,2433,309,-3243
4110,2430,321,-3243
4111,2430,321,-3297
4112,2394,168,-3297
4113,2295,168,-3333
4114,2295,183,-3321
4115,2328,225,-3321
4116,2433,225,-3306
4117,2433,255,-3306
4118,2463,255,-3306
4119,2463,267,-3312
4120,2427,270,-3312
4121,2361,270,-3333
4122,2361,213,-3288
4123,2376,213,-3288
4124,2376,189,-3363
4125,2466,279,-3363
4126,2439,279,-3393
4127,2439,234,-3402
4128,2394,234,-3402
4129,2394,204,-3441
4130,2325,126,-3441
4131,2472,126,-3423
4132,2472,153,-3468
4133,2469,126,-3468
4134,2469,126,-3516
4135,2550,192,-3516
4136,2553,192,-3582
4137,2553,225,-3516
4138,2502,195,-3516
4139,2496,195,-3573
4140,2496,75,-3573
4141,2466,75,-3513
4142,2466,33,-3501
4143,2412,57,-3501
4144,2430,57,-3483
4145,2430,126,-3462
4146,2532,126,-3462
4147,2532,300,-3549
4148,2589,81,-3549
4149,2571,81,-3543
4150,2571,-9,-3618
4151,2556,-66,-3618
4152,2556,-66,-3603
4153,2658,-135,-3603
4154,2658,-135,-3732
4155,2658,-231,-3783
4156,2745,-87,-3783
4157,2817,-87,-3807
4158,2817,-108,-3807
4159,2835,-108,-3843
4160,2835,-249,-3753
4161,2805,-267,-3753
4162,2868,-267,-3852
4163,2868,-525,-3792
4164,2844,-525,-3792
4165,2844,-378,-3837
4166,2790,-504,-3837
4167,2811,-504,-3762
4168,2811,-372,-3867
4169,2850,-534,-3867
4170,2850,-534,-3783
4171,2898,-675,-3783
4172,2841,-675,-3774
4173,2841,-954,-3714
4174,2835,-912,-3714
4175,2874,-912,-3798
4176,2874,-1128,-3798
4177,2928,-1128,-3759
4178,2928,-969,-3723
4179,3057,-888,-3723
4180,3123,-888,-3609
4181,3123,-1158,-3486
4182,3051,-1158,-3486
4183,3051,-1317,-3336
4184,2832,-1383,-3336
4185,2616,-1383,-3120
4186,2616,-1578,-3150
4187,2439,-1578,-3150
4188,2439,-1563,-2961
4189,2553,-1659,-2961
4190,2757,-1659,-2745
4191,2757,-1665,-2535
4192,2826,-2070,-2535
4193,2826,-2070,-2373
4194,2853,-2052,-2373
4195,2646,-2052,-2223
4196,2646,-2016,-2103
4197,2595,-2229,-2103
4198,2409,-2229,-1842
4199,2409,-2412,-1575
4200,2283,-2412,-1575
4201,2283,-2616,-1422
4202,2154,-2658,-1422
4203,2103,-2658,-1020
4204,2103,-2490,-840
4205,1980,-2490,-840
4206,1980,-2514,-582
4207,1989,-2484,-582
4208,2061,-2484,-321
4209,2061,-2388,-96
4210,2082,-2460,-96
4211,2082,-2460,285
4212,2244,-2346,285
4213,2397,-2346,489
4214,2397,-2220,696
4215,2088,-2145,696
4216,1797,-2145,912
4217,1797,-2172,1062
4218,1677,-2172,1062
4219,1677,-2250,1344
4220,1431,-2172,1344
4221,1314,-2172,1494
4222,1314,-1899,1695
4223,1179,-1899,1695
4224,1179,-2010,1965
4225,993,-1938,1965
4226,936,-1938,2355
4227,936,-1671,2571
4228,837,-1362,2571
4229,837,-1362,2847
4230,753,-1302,2847
4231,630,-1302,2898
4232,630,-1332,3225
4233,432,-1422,3225
4234,363,-1422,3213
4235,363,-1311,3132
4236,150,-1311,3132
4237,150,-1248,3183
4238,-81,-1260,3183
4239,-210,-1260,3225
4240,-210,-1341,3288
4241,-357,-1341,3288
4242,-357,-1206,3408
4243,-459,-942,3408
4244,-546,-942,3465
4245,-546,-780,3636
4246,-561,-549,3636
4247,-561,-549,3840
4248,-750,-369,3840
4249,-1155,-369,4101
4250,-1155,3,4428
4251,-1524,474,4428
4252,-1875,474,4815
4253,-1875,738,4815
4254,-1995,738,5154
4255,-1995,1011,5361
4256,-2097,1122,5361
4257,-2304,1122,5526
4258,-2304,1185,5532
4259,-2229,1185,5532
4260,-2229,1092,5532
4261,-2073,846,5532
4262,-1977,846,5379
4263,-1977,648,5130
4264,-1998,516,5130
4265,-1998,516,5073
4266,-1764,330,5073
4267,-1581,330,4929
4268,-1581,276,4848
4269,-1539,-9,4848
4270,-1395,-9,4878
4271,-1395,-96,4878
4272,-1194,-96,4764
4273,-1194,-330,4617
4274,-990,-402,4617
4275,-1047,-402,4437
4276,-1047,-549,4242
4277,-1059,-549,4242
4278,-1059,-750,4101
4279,-1047,-930,4101
4280,-891,-930,3885
4281,-891,-1098,3765
4282,-627,-1098,3765
4283,-627,-954,3741
4284,-489,-696,3741
4285,-180,-696,3819
4286,-180,-699,3696
4287,12,-807,3696
4288,12,-807,3474
4289,297,-1134,3474
4290,438,-1134,3360
4291,438,-1368,3258
4292,465,-1359,3258
4293,501,-1359,3189
4294,501,-1443,3189
4295,684,-1443,3057
4296,684,-1485,2763
4297,870,-1668,2763
4298,1254,-1668,2547
4299,1254,-1890,2451
4300,1305,-1890,2451
4301,1305,-2001,2130
4302,1524,-2007,2130
4303,1521,-2007,1809
4304,1521,-2112,1548
4305,1536,-2376,1548
4306,1536,-2376,1188
4307,1725,-2556,1188
4308,1797,-2556,1023
4309,1797,-2841,1017
4310,2019,-2796,1017
4311,2019,-2796,876
4312,2001,-2688,876
4313,2253,-2688,750
4314,2253,-2481,591
4315,2382,-2478,591
4316,2490,-2478,555
4317,2490,-2526,465
4318,2541,-2526,465
4319,2541,-2505,303
4320,2283,-2445,303
4321,2310,-2445,150
4322,2310,-2223,-276
4323,2436,-2223,-276
4324,2436,-2094,-564
4325,2628,-2121,-564
4326,2748,-2121,-888
4327,2748,-2220,-963
4328,2988,-2016,-963
4329,2988,-2016,-1335
4330,3357,-1347,-1335
4331,3348,-1347,-1761
4332,3348,-1611,-2022
4333,3273,-2007,-2022
4334,2775,-2007,-2064
4335,2775,-2082,-2439
4336,2628,-2082,-2439
4337,2628,-2094,-2574
4338,2643,-1884,-2574
4339,2595,-1884,-2640
4340,2595,-1668,-2670
4341,2826,-1668,-2670
4342,2826,-1395,-2829
4343,2841,-1407,-2829
4344,2886,-1407,-2940
4345,2886,-1293,-3072
4346,2619,-1302,-3072
4347,2619,-1302,-3090
4348,2541,-1164,-3090
4349,2361,-1164,-3177
4350,2361,-903,-3267
4351,2472,-741,-3267
4352,2490,-741,-3393
4353,2490,-777,-3393
4354,2538,-777,-3483
4355,2538,-687,-3432
4356,2577,-606,-3432
4357,2523,-606,-3456
4358,2523,-357,-3507
4359,2466,-357,-3507
4360,2466,-339,-3456
4361,2463,-204,-3456
4362,2418,-204,-3612
4363,2418,-198,-3678
4364,2412,-459,-3678
4365,2412,-459,-3798
4366,2622,-237,-3798
4367,2778,-237,-3894
4368,2778,-201,-3888
4369,3000,-219,-3888
4370,3138,-219,-3933
4371,3138,-147,-3933
4372,3327,-147,-4023
4373,3327,9,-4245
4374,3369,-18,-4245
4375,3330,-18,-4218
4376,3330,-135,-4224
4377,3330,-135,-4224
4378,3330,-45,-4128
4379,3228,-84,-4128
4380,3081,-84,-4044
4381,3081,117,-3963
4382,3141,219,-3963
4383,3141,219,-3843
4384,3075,144,-3843
4385,3048,144,-3672
4386,3048,45,-3549
4387,2805,-33,-3549
4388,2709,-33,-3402
4389,2709,-57,-3402
4390,2730,-57,-3297
4391,2730,105,-3237
4392,2685,90,-3237
4393,2571,90,-3177
4394,2571,60,-3105
4395,2463,60,-3105
4396,2463,-66,-2961
4397,2412,-39,-2961
4398,2508,-39,-2874
4399,2508,-45,-2904
4400,2565,129,-2904
4401,2565,129,-2826
4402,2559,87,-2826
4403,2463,87,-2886
4404,2463,6,-2820
4405,2451,-90,-2820
4406,2427,-90,-2856
4407,2427,-72,-2856
4408,2364,-72,-2940
4409,2364,-60,-3021
4410,2412,0,-3021
4411,2541,0,-2931
4412,2541,54,-3021
4413,2637,54,-3021
4414,2637,90,-3057
4415,2646,114,-3057
4416,2577,114,-3105
4417,2577,-72,-3207
4418,2505,-72,-3207
4419,2505,-42,-3192
4420,2640,-60,-3192
4421,2850,-60,-3156
4422,2850,33,-3195
4423,3054,300,-3195
4424,3054,300,-3102
4425,3099,234,-3102
4426,3066,234,-3042
4427,3066,180,-2880
4428,2973,108,-2880
4429,2919,108,-2856
4430,2919,96,-2856
4431,2964,96,-2931
4432,2964,117,-2865
4433,3150,234,-2865
4434,3111,234,-2844
4435,3111,297,-2811
4436,3039,297,-2811
4437,3039,234,-2856
4438,3024,132,-2856
4439,2952,132,-2859
4440,2952,183,-2874
4441,2997,177,-2874
4442,2997,177,-2844
4443,3006,270,-2844
4444,2973,270,-2931
4445,2973,318,-2922
4446,2964,231,-2922
4447,2964,231,-2814
4448,2967,105,-2814
4449,2937,105,-2895
4450,2937,33,-2991
4451,2898,3,-2991
4452,2862,3,-3057
4453,2862,117,-3030
4454,2970,117,-3030
4455,2970,96,-3015
4456,3015,216,-3015
4457,2928,216,-2955
4458,2928,264,-2907
4459,2772,264,-2907
4460,2772,234,-2916
4461,2733,348,-2916
4462,2796,348,-2901
4463,2796,444,-2790
4464,2814,411,-2790
4465,2814,411,-2844
4466,2817,339,-2844
4467,2637,339,-2820
4468,2637,207,-2835
4469,2670,300,-2835
4470,2910,300,-2937
4471,2910,483,-2937
4472,3042,483,-2982
4473,3042,576,-3042
4474,3081,387,-3042
4475,2919,387,-3027
4476,2919,228,-3126
4477,2865,228,-3126
4478,2865,270,-3261
4479,2757,300,-3261
4480,2760,300,-3348
4481,2760,159,-3243
4482,2796,222,-3243
4483,2796,222,-3201
4484,2964,177,-3201
4485,3021,177,-3150
4486,3021,285,-3150
4487,2949,222,-3150
4488,2739,222,-3192
4489,2739,228,-3192
4490,2484,228,-3237
4491,2484,132,-3258
4492,2517,9,-3258
4493,2553,9,-3207
4494,2553,30,-3228
4495,2616,30,-3228
4496,2616,-90,-3252
4497,2637,129,-3252
4498,2592,129,-3150
4499,2592,-30,-3015
4500,2421,-30,-3015
4501,2421,-129,-2829
4502,2508,-15,-2829
4503,2595,-15,-2880
4504,2595,294,-2799
4505,2577,498,-2799
4506,2577,498,-2739
4507,2556,444,-2739
4508,2349,444,-2751
4509,2349,369,-2811
4510,2382,216,-2811
4511,2943,216,-2955
4512,2943,189,-2955
4513,3309,189,-3207
4514,3309,468,-3498
4515,3237,273,-3498
4516,2547,273,-3699
4517,2547,111,-3723
4518,2124,111,-3723
4519,2124,-231,-3561
4520,2187,-282,-3561
4521,2508,-282,-3300
4522,2508,165,-3378
4523,2784,402,-3378
4524,2784,402,-3318
4525,2844,429,-3318
4526,2799,429,-3282
4527,2799,219,-3291
4528,2523,-57,-3291
4529,2319,-57,-3222
4530,2319,-276,-3222
4531,2220,-276,-3240
4532,2220,-84,-3225
4533,2481,153,-3225
4534,2661,153,-3141
4535,2661,324,-3045
4536,2553,324,-3045
4537,2553,306,-2844
4538,2292,276,-2844
4539,1953,276,-2856
4540,1953,162,-2946
4541,1746,162,-2946
4542,1746,261,-3060
4543,1728,240,-3060
4544,2043,240,-3147
4545,2043,297,-3261
4546,2295,138,-3261
4547,2295,138,-3321
4548,2505,132,-3321
4549,2676,132,-3387
4550,2676,135,-3432
4551,2652,114,-3432
4552,2685,114,-3261
4553,2685,-69,-3261
4554,2628,-69,-3156
4555,2628,36,-3027
4556,2592,270,-3027
4557,2664,270,-2922
4558,2664,147,-2661
4559,2538,147,-2661
4560,2538,-6,-2490
4561,2382,30,-2490
4562,2433,30,-2544
4563,2433,213,-2601
4564,2652,198,-2601
4565,2652,198,-2649
4566,2964,195,-2649
4567,3273,195,-2841
4568,3273,96,-3000
4569,3414,60,-3000
4570,3366,60,-3117
4571,3366,24,-3117
4572,3387,24,-3126
4573,3387,24,-3162
4574,3657,159,-3162
4575,3669,159,-3210
4576,3669,222,-3222
4577,3468,222,-3222
4578,3468,282,-3237
4579,3186,276,-3237
4580,2997,276,-3303
4581,2997,156,-3441
4582,2910,45,-3441
4583,2910,45,-3549
4584,2811,12,-3549
4585,2970,12,-3588
4586,2970,156,-3702
4587,2955,234,-3702
4588,2955,234,-3879
4589,3081,33,-3879
4590,3159,33,-4035
4591,3159,-147,-4050
4592,3108,-216,-4050
4593,2868,-216,-3984
4594,2868,-204,-3957
4595,2847,-204,-3957
4596,2847,-165,-3852
4597,2901,-186,-3852
4598,2928,-186,-3804
4599,2928,-78,-3699
4600,2904,-231,-3699
4601,2904,-231,-3612
4602,2781,-432,-3612
4603,2715,-432,-3651
4604,2715,-567,-3663
4605,2664,-651,-3663
4606,2664,-651,-3648
4607,2733,-441,-3648
4608,2949,-441,-3789
4609,2949,-636,-3792
4610,3198,-828,-3792
4611,3315,-828,-3738
4612,3315,-909,-3738
4613,3150,-909,-3813
4614,3150,-957,-3873
4615,3018,-1098,-3873
4616,2898,-1098,-3852
4617,2898,-1242,-3903
4618,2793,-1242,-3903
4619,2793,-1167,-3948
4620,2604,-1299,-3948
4621,2658,-1299,-3759
4622,2658,-1551,-3582
4623,2478,-1677,-3582
4624,2478,-1677,-3381
4625,2367,-1776,-3381
4626,2262,-1776,-3258
4627,2262,-2004,-2889
4628,2226,-2259,-2889
4629,2520,-2259,-2439
4630,2520,-2328,-2439
4631,2238,-2328,-2094
4632,2238,-1944,-1671
4633,2070,-2121,-1671
4634,1917,-2121,-1230
4635,1917,-1959,-819
4636,1836,-1959,-819
4637,1836,-2223,-513
4638,1470,-2193,-513
4639,1068,-2193,-162
4640,1068,-2250,54
4641,717,-2376,54
4642,717,-2376,300
4643,450,-2466,300
4644,417,-2466,531
4645,417,-2286,810
4646,657,-2109,810
4647,657,-2109,1062
4648,822,-2250,1062
4649,846,-2250,1242
4650,846,-2181,1518
4651,918,-2004,1518
4652,855,-2004,1830
4653,855,-1776,2181
4654,1146,-1776,2181
4655,1146,-1302,2235
4656,789,-1581,2235
4657,666,-1581,2376
4658,666,-1710,2460
4659,483,-1710,2460
4660,483,-1785,2721
4661,288,-1545,2721
4662,-219,-1545,2907
4663,-219,-1185,3057
4664,-369,-1041,3057
4665,-369,-1041,3204
4666,-480,-753,3204
4667,-627,-753,3393
4668,-627,-558,3579
4669,-762,-390,3579
4670,-825,-390,3780
4671,-825,81,3780
4672,-1377,81,4095
4673,-1377,255,4446
4674,-1638,819,4446
4675,-2274,819,4968
4676,-2274,939,5535
4677,-2832,939,5535
4678,-2832,1329,6183
4679,-3675,1842,6183
4680,-3936,1842,6708
4681,-3936,2214,7026
4682,-3753,2514,7026
4683,-3753,2514,6954
4684,-3114,2232,6954
4685,-2859,2232,6588
4686,-2859,1863,6033
4687,-2385,1320,6033
4688,-1854,1320,5487
4689,-1854,807,5487
4690,-1695,807,5100
4691,-1695,204,4737
4692,-1602,-171,4737
4693,-1497,-171,4494
4694,-1497,-543,4122
4695,-1542,-543,4122
4696,-1542,-885,3801
4697,-1311,-1098,3801
4698,-891,-1098,3621
4699,-891,-936,3549
4700,-678,-993,3549
4701,-678,-993,3330
4702,-264,-1230,3330
4703,99,-1230,3009
4704,99,-1428,3018
4705,414,-1383,3018
4706,423,-1383,2727
4707,423,-1587,2727
4708,306,-1587,2481
4709,306,-1758,2136
4710,495,-1995,2136
4711,708,-1995,2046
4712,708,-1908,1818
4713,864,-1908,1818
4714,864,-1887,1392
4715,831,-2235,1392
4716,1047,-2235,1299
4717,1047,-2412,1032
4718,1128,-2511,1032
4719,1128,-2511,885
4720,1155,-2430,885
4721,1143,-2430,501
4722,1143,-2652,138
4723,1077,-2859,138
4724,1338,-2859,54
4725,1338,-2700,54
4726,1215,-2700,-78
4727,1215,-2658,-504
4728,1140,-2682,-504
4729,1266,-2682,-750
4730,1266,-2766,-1035
4731,1182,-2766,-1035
4732,1182,-2382,-1302
4733,1596,-2193,-1302
4734,2082,-2193,-1806
4735,2082,-1929,-2154
4736,2850,-1914,-2154
4737,2850,-1914,-2445
4738,2895,-2004,-2445
4739,2535,-2004,-2664
4740,2535,-2493,-2916
4741,2343,-2403,-2916
4742,2343,-2403,-2970
4743,2205,-2499,-2970
4744,2313,-2499,-2952
4745,2313,-2292,-3102
4746,2433,-2106,-3102
4747,2568,-2106,-3180
4748,2568,-2115,-3180
4749,2457,-2115,-3180
4750,2457,-2046,-3156
4751,2358,-2076,-3156
4752,2328,-2076,-3117
4753,2328,-1665,-3231
4754,2256,-1413,-3231
4755,2256,-1413,-3231
4756,2238,-1470,-3231
4757,2265,-1470,-3117
4758,2265,-1455,-3021
4759,2103,-1221,-3021
4760,2103,-1221,-3006
4761,1935,-858,-3006
4762,1938,-858,-3090
4763,1938,-588,-3096
4764,1917,-450,-3096
4765,1845,-450,-3117
4766,1845,-378,-3300
4767,1968,-378,-3300
4768,1968,-96,-3492
4769,2109,15,-3492
4770,2361,15,-3969
4771,2361,-45,-4575
4772,2559,-45,-4575
4773,2559,-504,-4842
4774,3030,-1146,-4842
4775,3294,-1146,-4926
4776,3294,-867,-4893
4777,3393,-669,-4893
4778,3393,-669,-4611
4779,3585,-117,-4611
4780,3696,-117,-4431
4781,3696,270,-4224
4782,3429,123,-4224
4783,3156,123,-4080
4784,3156,9,-4080
4785,2673,9,-4164
4786,2673,-264,-4110
4787,2640,-390,-4110
4788,2841,-390,-4068
4789,2841,-288,-3927
4790,3219,-288,-3927
4791,3219,15,-3834
4792,3192,72,-3834
4793,2928,72,-3642
4794,2928,-45,-3546
4795,2664,-132,-3546
4796,2664,-132,-3462
4797,2397,-102,-3462
4798,2325,-102,-3360
4799,2325,-189,-3252
4800,2277,-81,-3252
4801,2388,-81,-3210
4802,2388,-117,-3210
4803,2508,-117,-3162
4804,2508,-195,-3222
4805,2505,-291,-3222
4806,2622,-291,-3267
4807,2622,-327,-3276
4808,2673,-327,-3276
4809,2673,-300,-3312
4810,2658,-381,-3312
4811,2628,-381,-3327
4812,2628,-414,-3252
4813,2607,-438,-3252
4814,2607,-438,-3180
4815,2754,-270,-3180
4816,2673,-270,-3192
4817,2673,-330,-3135
4818,2601,-351,-3135
4819,2601,-351,-3111
4820,2463,-423,-3111
4821,2346,-423,-3102
4822,2346,-543,-3117
4823,2367,-534,-3117
4824,2523,-534,-3162
4825,2523,-528,-3120
4826,2685,-528,-3120
4827,2685,-456,-3141
4828,2652,-528,-3141
4829,2634,-528,-3141
4830,2634,-480,-3147
4831,2526,-480,-3147
4832,2526,-546,-3090
4833,2484,-534,-3090
4834,2619,-534,-3045
4835,2619,-540,-2979
4836,2790,-468,-2979
4837,2790,-468,-2919
4838,2796,-606,-2919
4839,2637,-606,-2865
4840,2637,-726,-2982
4841,2535,-816,-2982
4842,2595,-816,-2886
4843,2595,-714,-2886
4844,2721,-714,-2841
4845,2721,-537,-2730
4846,2688,-597,-2730
4847,2478,-597,-2739
4848,2478,-681,-2631
4849,2397,-681,-2631
4850,2397,-792,-2655
4851,2298,-771,-2655
4852,2382,-771,-2553
4853,2382,-726,-2610
4854,2508,-657,-2610
4855,2508,-657,-2559
4856,2535,-639,-2559
4857,2490,-639,-2586
4858,2490,-645,-2619
4859,2517,-789,-2619
4860,2547,-789,-2586
4861,2547,-753,-2586
4862,2550,-753,-2610
4863,2550,-645,-2754
4864,2553,-621,-2754
4865,2514,-621,-2829
4866,2514,-618,-2856
4867,2496,-618,-2856
4868,2496,-669,-2982
4869,2427,-654,-2982
4870,2427,-654,-3105
4871,2427,-561,-3135
4872,2448,-561,-3135
4873,2448,-453,-3246
4874,2520,-435,-3246
4875,2547,-435,-3312
4876,2547,-384,-3393
4877,2550,-366,-3393
4878,2550,-366,-3387
4879,2637,-192,-3387
4880,2508,-192,-3537
4881,2508,-150,-3627
4882,2472,-87,-3627
4883,2379,-87,-3663
4884,2379,-78,-3663
4885,2268,-78,-3699
4886,2268,-30,-3723
4887,2241,0,-3723
4888,2244,0,-3678
4889,2244,210,-3684
4890,2211,210,-3684
4891,2211,297,-3663
4892,2061,369,-3663
4893,1947,369,-3687
4894,1947,324,-3573
4895,1830,324,-3573
4896,1830,327,-3492
4897,1785,189,-3492
4898,1791,189,-3462
4899,1791,336,-3408
4900,1731,531,-3408
4901,1731,531,-3342
4902,1572,519,-3342
4903,1419,519,-3246
4904,1419,471,-3105
4905,1314,519,-3105
4906,1380,519,-3207
4907,1380,642,-3207
4908,1527,642,-3351
4909,1527,726,-3423
4910,1593,708,-3423
4911,1605,708,-3513
4912,1605,645,-3588
4913,1734,645,-3588
4914,1734,621,-3687
4915,1836,624,-3687
4916,2103,624,-3717
4917,2103,789,-3708
4918,2250,768,-3708
4919,2250,768,-3678
4920,2238,699,-3678
4921,2160,699,-3717
4922,2160,483,-3774
4923,2001,447,-3774
4924,2001,447,-3783
4925,1956,498,-3783
4926,1989,498,-3834
4927,1989,666,-3822
4928,1980,753,-3822
4929,1824,753,-3954
4930,1824,606,-3954
4931,1626,606,-4008
4932,1626,414,-4023
4933,1464,498,-4023
4934,1332,498,-4068
4935,1332,564,-4155
4936,1449,564,-4155
4937,1449,708,-4200
4938,1536,633,-4200
4939,1578,633,-4236
4940,1578,576,-4380
4941,1731,582,-4380
4942,1731,582,-4500
4943,1905,639,-4500
4944,2094,639,-4530
4945,2094,657,-4602
4946,2265,642,-4602
4947,2265,642,-4833
4948,2523,315,-4833
4949,2658,315,-5058
4950,2658,96,-5199
4951,2757,192,-5199
4952,2652,192,-5277
4953,2652,186,-5223
4954,2625,186,-5223
4955,2625,126,-5202
4956,2628,489,-5202
4957,2763,489,-5202
4958,2763,393,-5214
4959,2877,393,-5214
4960,2877,210,-5112
4961,2928,33,-5112
4962,2679,33,-5106
4963,2679,-111,-5076
4964,2577,-255,-5076
4965,2577,-255,-4950
4966,2508,-342,-4950
4967,2550,-342,-4722
4968,2550,-387,-4434
4969,2463,-570,-4434
4970,2241,-570,-4323
4971,2241,-354,-4323
4972,1944,-354,-4263
4973,1944,-633,-4125
4974,1707,-798,-4125
4975,1587,-798,-3969
4976,1587,-948,-3723
4977,1686,-948,-3723
4978,1686,-840,-3588
4979,1734,-954,-3588
4980,2049,-954,-3342
4981,2049,-903,-3120
4982,2103,-1158,-3120
4983,2103,-1158,-2751
4984,2118,-1347,-2751
4985,1893,-1347,-2565
4986,1893,-1506,-2154
4987,1803,-1776,-2154
4988,1617,-1776,-1932
4989,1617,-2112,-1932
4990,1446,-2112,-1581
4991,1446,-2145,-1254
4992,1389,-2274,-1254
4993,1242,-2274,-1125
4994,1242,-2118,-900
4995,1227,-2118,-900
4996,1227,-2286,-564
4997,1212,-2562,-564
4998,1083,-2562,-333
4999,1083,-2541,-186
5000,933,-2265,-186
5001,933,-2265,-42
5002,222,-2634,-42
5003,195,-2634,204
5004,195,-2667,450
5005,108,-2751,450
5006,108,-2751,606
5007,-162,-2841,606
5008,-282,-2841,726
5009,-282,-2922,981
5010,-303,-3015,981
5011,-339,-3015,1287
5012,-339,-2955,1458
5013,-351,-2955,1458
5014,-351,-2793,1728
5015,-246,-2631,1728
5016,-177,-2631,1986
5017,-177,-2319,2226
5018,27,-2319,2226
5019,27,-2259,2415
5020,57,-2391,2415
5021,36,-2391,2661
5022,36,-2190,2994
5023,-165,-1656,2994
5024,-165,-1656,3057
5025,-729,-1587,3057
5026,-1029,-1587,3483
5027,-1029,-1605,3474
5028,-1212,-1377,3474
5029,-1389,-1377,3621
5030,-1389,-1320,3621
5031,-1353,-1320,3735
5032,-1353,-1230,3720
5033,-1698,-1302,3720
5034,-1767,-1302,3882
5035,-1767,-1173,3876
5036,-1995,-1173,3876
5037,-1995,-1110,3852
5038,-2133,-966,3852
5039,-2406,-966,4005
5040,-2406,-669,4203
5041,-2421,-465,4203
5042,-2421,-465,4347
5043,-2523,-9,4347
5044,-2703,-9,4689
5045,-2703,393,5088
5046,-3042,870,5088
5047,-3030,870,5487
5048,-3030,1341,5487
5049,-2883,1341,5721
5050,-2883,1653,5838
5051,-2499,1809,5838
5052,-2442,1809,5691
5053,-2442,1797,5541
5054,-2028,1797,5541
5055,-2028,1455,5220
5056,-1650,1044,5220
5057,-1614,1044,4752
5058,-1614,540,4383
5059,-1545,123,4383
5060,-1545,123,4125
5061,-1575,-330,4125
5062,-1512,-330,4023
5063,-1512,-753,3975
5064,-1539,-840,3975
5065,-1506,-840,4125
5066,-1506,-783,4125
5067,-1170,-783,4137
5068,-1170,-951,4011
5069,-819,-966,4011
5070,-723,-966,4173
5071,-723,-1080,4161
5072,-873,-1080,4161
5073,-873,-1338,4041
5074,-594,-1389,4041
5075,-423,-1389,3870
5076,-423,-1581,3765
5077,-255,-1665,3765
5078,-255,-1665,3531
5079,-378,-1833,3531
5080,-228,-1833,3510
5081,-228,-1812,3147
5082,36,-1815,3147
5083,36,-1815,2823
5084,42,-2025,2823
5085,234,-2025,2346
5086,234,-2289,2196
5087,315,-2229,2196
5088,606,-2229,1809
5089,606,-2043,1263
5090,627,-2043,1263
5091,627,-2235,756
5092,924,-2574,756
5093,849,-2574,165
5094,849,-3141,-123
5095,1086,-3141,-123
5096,1086,-3000,-207
5097,981,-2826,-207
5098,765,-2826,-558
5099,765,-2637,-768
5100,696,-2394,-768
5101,696,-2394,-1269
5102,294,-2388,-1269
5103,453,-2388,-1962
5104,453,-2199,-2073
5105,810,-2460,-2073
5106,1455,-2460,-2163
5107,1455,-2592,-2163
5108,1266,-2592,-2199
5109,1266,-1869,-2640
5110,972,-1314,-2640
5111,870,-1314,-3021
5112,870,-1569,-3303
5113,1020,-1569,-3303
5114,1020,-1554,-3216
5115,993,-1695,-3216
5116,966,-1695,-3318
5117,966,-1479,-3216
5118,867,-1416,-3216
5119,867,-1416,-3243
5120,1002,-1221,-3243
5121,750,-1221,-3105
5122,750,-546,-3246
5123,729,471,-3246
5124,861,471,-3462
5125,861,690,-3462
5126,1491,690,-3813
5127,1491,1305,-4671
5128,984,1929,-4671
5129,39,1929,-7032
5130,39,1455,-8192
5131,-153,1455,-8192
5132,-153,-4458,-7782
5133,687,-3549,-7782
5134,1542,-3549,-7440
5135,1542,-1338,-6993
5136,2916,192,-6993
5137,2916,192,-5760
5138,3987,1659,-5760
5139,2850,1659,-5463
5140,2850,570,-5247
5141,2154,570,-5247
5142,1572,570,-5046
5143,1572,-174,-5046
5144,441,-174,-4977
5145,441,-720,-4491
5146,1041,-534,-4491
5147,1032,-534,-4545
5148,1032,-279,-4575
5149,1527,-279,-4575
5150,1527,-39,-4506
5151,2040,-225,-4506
5152,2352,-225,-4248
5153,2352,-375,-4173
5154,2277,-579,-4173
5155,2277,-579,-4113
5156,1965,-666,-4113
5157,1617,-666,-4125
5158,1617,-417,-3897
5159,1308,-96,-3897
5160,1308,-96,-3651
5161,1026,39,-3651
5162,813,39,-3507
5163,813,159,-3558
5164,645,249,-3558
5165,1026,249,-3639
5166,1026,-48,-3672
5167,1410,-48,-3672
5168,1410,-138,-3882
5169,1692,-246,-3882
5170,1746,-246,-4008
5171,1746,-399,-3873
5172,1776,-399,-3873
5173,1776,-495,-3954
5174,1746,-444,-3954
5175,1542,-444,-3843
5176,1542,-459,-3828
5177,1473,-345,-3828
5178,1473,-345,-3693
5179,1269,-429,-3693
5180,1074,-429,-3657
5181,1074,-288,-3798
5182,765,-321,-3798
5183,630,-321,-3888
5184,630,-606,-3813
5185,804,-606,-3813
5186,804,-816,-3894
5187,1071,-378,-3894
5188,1086,-378,-4023
5189,1086,-402,-3978
5190,1260,-402,-3978
5191,1260,-681,-3903
5192,1320,-687,-3903
5193,1224,-687,-3930
5194,1224,-525,-3942
5195,1182,-417,-3942
5196,1182,-417,-3939
5197,1077,-516,-3939
5198,948,-516,-3912
5199,948,-702,-3732
5200,1038,-1098,-3732
5201,936,-1098,-3753
5202,936,-708,-3753
5203,1050,-708,-3774
5204,1050,-531,-3687
5205,1329,-618,-3687
5206,1293,-618,-3546
5207,1293,-816,-3366
5208,1299,-816,-3366
5209,1299,-696,-3453
5210,984,-738,-3453
5211,897,-738,-3522
5212,897,-849,-3321
5213,1017,-786,-3321
5214,1017,-786,-3342
5215,1044,-804,-3342
5216,1086,-804,-3378
5217,1086,-966,-3411
5218,921,-861,-3411
5219,912,-861,-3537
5220,912,-654,-3537
5221,1008,-654,-3648
5222,1008,-633,-3723
5223,1095,-669,-3723
5224,1017,-669,-3723
5225,1017,-627,-3759
5226,1131,-627,-3759
5227,1131,-582,-3651
5228,1251,-246,-3651
5229,1344,-246,-3747
5230,1344,123,-3789
5231,1353,147,-3789
5232,1353,147,-3933
5233,1242,171,-3933
5234,1224,171,-3990
5235,1224,-102,-4098
5236,1347,3,-4098
5237,1347,3,-4185
5238,1212,228,-4185
5239,1521,228,-4290
5240,1521,204,-4299
5241,1641,3,-4299
5242,1608,3,-4209
5243,1608,-27,-4074
5244,1362,-27,-4074
5245,1362,222,-3900
5246,1308,144,-3900
5247,1089,144,-3852
5248,1089,138,-3789
5249,1074,90,-3789
5250,1074,90,-3567
5251,1119,114,-3567
5252,1239,114,-3483
5253,1239,126,-3381
5254,1248,147,-3381
5255,1179,147,-3171
5256,1179,117,-3171
5257,1500,117,-3042
5258,1500,30,-2910
5259,1467,573,-2910
5260,1377,573,-3147
5261,1377,522,-3291
5262,1380,522,-3291
5263,1380,282,-3276
5264,1128,54,-3276
5265,906,54,-3372
5266,906,513,-3639
5267,1038,1002,-3639
5268,1038,1002,-3900
5269,1404,780,-3900
5270,1554,780,-4104
5271,1554,534,-4374
5272,1302,423,-4374
5273,1527,423,-4470
5274,1527,327,-4470
5275,1647,327,-4605
5276,1647,57,-4449
5277,1917,327,-4449
5278,2106,327,-4245
5279,2106,576,-4008
5280,1917,576,-4008
5281,1917,645,-3879
5282,1572,717,-3879
5283,1206,717,-3687
5284,1206,483,-3492
5285,1077,393,-3492
5286,1077,393,-3477
5287,843,498,-3477
5288,717,498,-3477
5289,717,519,-3507
5290,1050,552,-3507
5291,1359,552,-3708
5292,1359,324,-3708
5293,1551,324,-3915
5294,1551,132,-3807
5295,1671,339,-3807
5296,1866,339,-3864
5297,1866,360,-3909
5298,1860,360,-3909
5299,1860,363,-3999
5300,1860,393,-3999
5301,1743,393,-4029
5302,1743,420,-3915
5303,1746,402,-3915
5304,1746,402,-4158
5305,1749,654,-4158
5306,1731,654,-4479
5307,1731,675,-4770
5308,2085,195,-4770
5309,2367,195,-4752
5310,2367,-57,-4752
5311,2679,-57,-4491
5312,2679,-147,-4320
5313,3003,300,-4320
5314,3042,300,-4200
5315,3042,564,-4005
5316,2853,564,-4005
5317,2853,423,-3834
5318,2277,246,-3834
5319,1332,246,-3567
5320,1332,9,-3447
5321,882,9,-3447
5322,882,-57,-3276
5323,708,90,-3276
5324,1113,90,-3096
5325,1113,-69,-2970
5326,1515,54,-2970
5327,1515,54,-3027
5328,1659,84,-3027
5329,1653,84,-3207
5330,1653,453,-3291
5331,1617,312,-3291
5332,1560,312,-3381
5333,1560,156,-3381
5334,1506,156,-3597
5335,1506,63,-3789
5336,1551,375,-3789
5337,1332,375,-4029
5338,1332,330,-4095
5339,1416,330,-4095
5340,1416,501,-4194
5341,1455,399,-4194
5342,1377,399,-4236
5343,1377,147,-4224
5344,1317,18,-4224
5345,1317,18,-4245
5346,1416,228,-4245
5347,1764,228,-4404
5348,1764,492,-4695
5349,2049,447,-4695
5350,2277,447,-4737
5351,2277,180,-4737
5352,2229,180,-4557
5353,2229,-252,-4725
5354,2313,78,-4725
5355,2346,78,-4872
5356,2346,423,-4866
5357,2706,423,-4866
5358,2706,525,-4911
5359,2676,465,-4911
5360,2307,465,-4962
5361,2307,246,-4848
5362,2163,-237,-4848
5363,2163,-237,-4947
5364,2352,-468,-4947
5365,2361,-468,-4926
5366,2361,-150,-5013
5367,2277,93,-5013
5368,2277,93,-4851
5369,2277,501,-4851
5370,2283,501,-4848
5371,2283,-42,-4485
5372,2277,-273,-4485
5373,2025,-273,-4395
5374,2025,-480,-4386
5375,1596,-480,-4386
5376,1596,-453,-4164
5377,1596,-531,-4164
5378,1809,-531,-3942
5379,1809,-597,-3636
5380,1998,-1017,-3636
5381,1998,-1017,-3477
5382,2076,-738,-3477
5383,1335,-738,-3372
5384,1335,-1035,-3096
5385,1119,-1653,-3096
5386,990,-1653,-2976
5387,990,-1614,-2976
5388,1002,-1614,-2769
5389,1002,-1536,-2679
5390,954,-1812,-2679
5391,819,-1812,-2499
5392,819,-2139,-2493
5393,816,-2139,-2493
5394,816,-2454,-2484
5395,957,-2181,-2484
5396,714,-2181,-2478
5397,714,-2187,-2370
5398,1041,-3042,-2370
5399,1041,-3042,-2232
5400,984,-3102,-2232
5401,768,-3102,-2142
5402,768,-3372,-2094
5403,825,-3336,-2094
5404,825,-3336,-2043
5405,843,-2898,-2043
5406,732,-2898,-1851
5407,732,-2991,-1596
5408,1077,-3114,-1596
5409,1281,-3114,-1302
5410,1281,-3312,-1074
5411,1308,-3312,-1074
5412,1308,-3213,-774
5413,1401,-3087,-774
5414,855,-3087,-483
5415,855,-3165,-231
5416,693,-3165,-231
5417,693,-3111,138
5418,666,-2787,138
5419,834,-2787,390
5420,834,-3006,807
5421,732,-3021,807
5422,732,-3021,1212
5423,864,-2430,1212
5424,366,-2430,1458
5425,366,-2409,1845
5426,312,-2268,1845
5427,540,-2268,2124
5428,540,-2280,2124
5429,183,-2280,2445
5430,183,-2067,2520
5431,132,-1821,2520
5432,-48,-1821,2676
5433,-48,-1995,2919
5434,21,-1995,2919
5435,21,-1878,2904
5436,-45,-1539,2904
5437,-258,-1539,3102
5438,-258,-1548,3129
5439,-126,-1416,3129
5440,-126,-1416,3318
5441,-297,-1350,3318
5442,-195,-1350,3450
5443,-195,-1002,3510
5444,-129,-732,3510
5445,-246,-732,3408
5446,-246,-543,3408
5447,-180,-543,3696
5448,-180,-369,3870
5449,-324,132,3870
5450,-510,132,3987
5451,-510,717,4257
5452,-591,717,4257
5453,-591,948,4383
5454,-240,1197,4383
5455,-522,1197,4518
5456,-522,1245,4563
5457,-930,1410,4563
5458,-930,1410,4614
5459,-1272,1620,4614
5460,-1359,1620,4773
5461,-1359,1965,4998
5462,-1425,2346,4998
5463,-1302,2346,5184
5464,-1302,2571,5184
5465,-1635,2571,5436
5466,-1635,2988,5826
5467,-1935,3156,5826
5468,-1926,3156,5778
5469,-1926,3111,5622
5470,-1818,3111,5622
5471,-1818,2865,5457
5472,-1569,2544,5457
5473,-1635,2544,5319
5474,-1635,2214,4860
5475,-1608,1887,4860
5476,-1608,1887,4428
5477,-1644,1338,4428
5478,-1248,1338,4233
5479,-1248,1023,4233
5480,-870,801,4233
5481,-789,801,4077
5482,-789,675,4077
5483,-705,675,3906
5484,-705,522,3669
5485,-411,540,3669
5486,-60,540,3429
5487,-60,-51,3168
5488,207,-51,3168
5489,207,-165,3042
5490,99,-588,3042
5491,450,-588,2904
5492,450,-621,2613
5493,540,-1077,2613
5494,540,-1077,2490
5495,747,-1434,2490
5496,453,-1434,2049
5497,453,-1752,1689
5498,441,-1788,1689
5499,543,-1788,1398
5500,543,-2013,1191
5501,708,-2013,1191
5502,708,-2187,981
5503,570,-2628,981
5504,579,-2628,525
5505,579,-2436,45
5506,897,-2436,45
5507,897,-2577,-483
5508,1176,-2994,-483
5509,1371,-2994,-588
5510,1371,-2856,-825
5511,1221,-2901,-825
5512,1221,-2901,-1269
5513,1125,-3147,-1269
5514,1353,-3147,-1452
5515,1353,-2982,-1551
5516,1569,-2730,-1551
5517,1593,-2730,-1923
5518,1593,-2343,-1923
5519,1332,-2343,-2418
5520,1332,-2919,-2676
5521,1503,-3228,-2676
5522,1638,-3228,-2661
5523,1638,-2550,-2922
5524,1431,-2550,-2922
5525,1431,-2127,-3273
5526,1281,-2382,-3273
5527,921,-2382,-3492
5528,921,-2646,-3624
5529,981,-2289,-3624
5530,981,-2289,-3633
5531,1140,-2094,-3633
5532,792,-2094,-3549
5533,792,-1977,-3789
5534,792,-1863,-3789
5535,1014,-1863,-3885
5536,1014,-1812,-3885
5537,1083,-1812,-3792
5538,1083,-1362,-3732
5539,1224,-834,-3732
5540,903,-834,-3990
5541,903,-957,-4110
5542,918,-957,-4110
5543,918,-1422,-4089
5544,879,-1176,-4089
5545,1095,-1176,-4128
5546,1095,-894,-4125
5547,1020,-738,-4125
5548,1020,-738,-4209
5549,1281,-252,-4209
5550,1395,-252,-4371
5551,1395,-279,-4308
5552,1458,-141,-4308
5553,1395,-141,-4299
5554,1395,-369,-4299
5555,1296,-369,-4215
5556,1296,-456,-4275
5557,1095,-42,-4275
5558,1083,-42,-4344
5559,1083,282,-4434
5560,1122,282,-4434
5561,1122,357,-4449
5562,1332,255,-4449
5563,1278,255,-4446
5564,1278,387,-4515
5565,1257,420,-4515
5566,1257,420,-4566
5567,1335,441,-4566
5568,1362,441,-4641
5569,1362,579,-4851
5570,1257,783,-4851
5571,1257,783,-4836
5572,1209,879,-4836
5573,1281,879,-4941
5574,1281,666,-5013
5575,1293,594,-5013
5576,1251,594,-4866
5577,1251,462,-4878
5578,1197,462,-4878
5579,1197,555,-4740
5580,1233,858,-4740
5581,1269,858,-4635
5582,1269,798,-4455
5583,1215,702,-4455
5584,1215,702,-4194
5585,1179,636,-4194
5586,1077,636,-4113
5587,1077,522,-3963
5588,963,687,-3963
5589,963,687,-3900
5590,918,723,-3900
5591,1038,723,-3822
5592,1038,618,-3744
5593,1110,555,-3744
5594,1041,555,-3678
5595,1041,627,-3717
5596,1089,627,-3717
5597,1089,642,-3669
5598,1182,552,-3669
5599,1308,552,-3732
5600,1308,504,-3777
5601,1293,540,-3777
5602,1293,540,-3864
5603,1173,645,-3864
5604,1146,645,-3909
5605,1146,753,-3954
5606,1179,765,-3954
5607,1179,765,-4029
5608,1350,594,-4029
5609,1176,594,-3918
5610,1176,489,-3984
5611,1113,552,-3984
5612,1062,552,-4020
5613,1062,582,-4020
5614,1119,582,-4044
5615,1119,750,-3999
5616,1152,699,-3999
5617,1191,699,-3948
5618,1191,579,-3870
5619,1188,579,-3870
5620,1188,606,-3930
5621,1155,597,-3930
5622,1125,597,-3822
5623,1125,627,-3792
5624,1119,546,-3792
5625,1119,546,-3843
5626,1101,570,-3843
5627,1188,570,-3789
5628,1188,666,-3813
5629,1293,696,-3813
5630,1194,696,-3792
5631,1194,648,-3792
5632,1266,648,-3828
5633,1266,645,-3849
5634,1194,615,-3849
5635,1248,615,-3870
5636,1248,588,-3870
5637,1398,588,-3870
5638,1398,675,-3870
5639,1467,714,-3870
5640,1641,714,-3864
5641,1641,735,-3834
5642,1629,714,-3834
5643,1629,714,-3828
5644,1620,615,-3828
5645,1521,615,-3870
5646,1521,606,-3798
5647,1353,672,-3798
5648,1353,672,-3792
5649,1368,645,-3792
5650,1281,645,-3870
5651,1281,672,-3858
5652,1251,714,-3858
5653,1368,714,-3870
5654,1368,699,-3759
5655,1464,699,-3759
5656,1464,732,-3828
5657,1437,741,-3828
5658,1395,741,-3687
5659,1395,687,-3828
5660,1317,687,-3828
5661,1317,702,-3789
5662,1329,573,-3789
5663,1326,573,-3804
5664,1326,621,-3822
5665,1299,636,-3822
5666,1299,636,-3774
5667,1278,747,-3774
5668,1353,747,-3774
5669,1353,693,-3783
5670,1419,579,-3783
5671,1488,579,-3819
5672,1488,597,-3819
5673,1560,597,-3768
5674,1560,657,-3804
5675,1542,792,-3804
5676,1629,792,-3879
5677,1629,675,-3834
5678,1560,675,-3834
5679,1560,597,-3789
5680,1629,579,-3789
5681,1596,579,-3792
5682,1596,579,-3732
5683,1638,579,-3732
5684,1638,642,-3654
5685,1557,678,-3654
5686,1593,678,-3627
5687,1593,690,-3669
5688,1488,747,-3669
5689,1488,747,-3672
5690,1458,825,-3672
5691,1401,825,-3663
5692,1401,783,-3699
5693,1401,726,-3699
5694,1419,726,-3759
5695,1419,732,-3759
5696,1542,732,-3792
5697,1542,720,-3807
5698,1653,738,-3807
5699,1728,738,-3792
5700,1728,807,-3915
5701,1689,807,-3915
5702,1689,834,-3858
5703,1686,837,-3858
5704,1656,837,-3828
5705,1656,702,-3777
5706,1611,684,-3777
5707,1611,684,-3768
5708,1491,720,-3768
5709,1428,720,-3792
5710,1428,825,-3717
5711,1368,798,-3717
5712,1386,798,-3723
5713,1386,753,-3723
5714,1539,753,-3693
5715,1539,759,-3699
5716,1680,675,-3699
5717,1641,675,-3684
5718,1641,705,-3657
5719,1593,705,-3657
5720,1593,747,-3678
5721,1500,798,-3678
5722,1533,798,-3687
5723,1533,891,-3663
5724,1674,774,-3663
5725,1674,774,-3678
5726,1764,753,-3678
5727,1749,753,-3678
5728,1749,789,-3708
5729,1659,858,-3708
5730,1716,858,-3762
5731,1716,756,-3762
5732,1758,756,-3702
5733,1758,726,-3669
5734,1713,693,-3669
5735,1608,693,-3768
5736,1608,768,-3804
5737,1635,768,-3804
5738,1635,924,-3804
5739,1710,861,-3804
5740,1785,861,-3777
5741,1785,732,-3804
5742,1710,702,-3804
5743,1710,702,-3714
5744,1611,654,-3714
5745,1662,654,-3657
5746,1662,570,-3411
5747,1731,516,-3411
5748,1731,516,-3318
5749,1704,675,-3318
5750,1605,675,-3246
5751,1605,801,-3303
5752,1560,969,-3303
5753,1500,969,-3333
5754,1500,756,-3333
5755,1431,756,-3423
5756,1431,756,-3699
5757,1566,765,-3699
5758,1860,765,-3837
5759,1860,687,-3969
5760,1983,687,-3969
5761,1983,690,-4215
5762,2055,720,-4215
5763,2004,720,-4164
5764,2004,717,-4143
5765,1830,921,-4143
5766,1830,921,-4023
5767,1734,786,-4023
5768,1590,786,-4059
5769,1590,642,-3888
5770,1437,639,-3888
5771,1383,639,-3819
5772,1383,792,-3819
5773,1422,792,-3657
5774,1422,840,-3597
5775,1401,678,-3597
5776,1353,678,-3531
5777,1353,645,-3537
5778,1335,645,-3537
5779,1335,624,-3462
5780,1335,720,-3462
5781,1497,720,-3456
5782,1497,603,-3492
5783,1590,717,-3492
5784,1590,717,-3543
5785,1695,720,-3543
5786,1713,720,-3597
5787,1713,696,-3588
5788,1773,729,-3588
5789,1773,729,-3654
5790,1818,636,-3654
5791,1971,636,-3609
5792,1971,603,-3702
5793,2013,678,-3702
5794,2118,678,-3714
5795,2118,756,-3702
5796,2187,756,-3702
5797,2187,714,-3609
5798,2139,801,-3609
5799,1947,801,-3624
5800,1947,798,-3612
5801,1881,798,-3612
5802,1881,675,-3552
5803,1812,504,-3552
5804,1764,504,-3516
5805,1764,534,-3516
5806,1815,699,-3516
5807,1815,699,-3507
5808,1914,780,-3507
5809,1968,780,-3456
5810,1968,777,-3447
5811,1896,756,-3447
5812,1809,756,-3417
5813,1809,759,-3417
5814,1725,759,-3423
5815,1725,690,-3423
5816,1734,669,-3423
5817,1833,669,-3516
5818,1833,750,-3594
5819,1740,750,-3594
5820,1740,888,-3687
5821,1734,801,-3687
5822,1773,801,-3642
5823,1773,666,-3717
5824,1773,675,-3717
5825,1773,675,-3678
5826,1782,681,-3678
5827,1818,681,-3813
5828,1818,786,-3759
5829,1710,927,-3759
5830,1656,927,-3678
5831,1656,801,-3678
5832,1575,801,-3648
5833,1575,759,-3639
5834,1635,735,-3639
5835,1659,735,-3594
5836,1659,681,-3654
5837,1713,681,-3654
5838,1713,801,-3654
5839,1740,900,-3654
5840,1800,900,-3618
5841,1800,786,-3639
5842,1851,795,-3639
5843,1851,795,-3603
5844,1881,780,-3603
5845,1827,780,-3522
5846,1827,846,-3531
5847,1836,780,-3531
5848,1836,780,-3558
5849,1836,804,-3558
5850,1833,804,-3543
5851,1833,834,-3498
5852,1827,870,-3498
5853,1833,870,-3468
5854,1833,930,-3516
5855,1875,930,-3516
5856,1875,906,-3483
5857,1938,918,-3483
5858,1965,918,-3507
5859,1965,918,-3597
5860,2004,918,-3597
5861,2004,888,-3549
5862,2061,870,-3549
5863,1938,870,-3657
5864,1938,984,-3642
5865,1845,978,-3642
5866,1845,978,-3657
5867,1824,951,-3657
5868,1779,951,-3612
5869,1779,957,-3582
5870,1842,933,-3582
5871,1881,933,-3654
5872,1881,873,-3654
5873,1809,873,-3669
5874,1809,870,-3612
5875,1740,903,-3612
5876,1629,903,-3654
5877,1629,1014,-3618
5878,1605,1014,-3618
5879,1605,900,-3708
5880,1674,834,-3708
5881,1776,834,-3684
5882,1776,852,-3642
5883,1824,972,-3642
5884,1824,972,-3804
5885,1869,1080,-3804
5886,1881,1080,-3639
5887,1881,933,-3654
5888,1824,930,-3654
5889,1809,930,-3654
5890,1809,882,-3654
5891,1776,882,-3657
5892,1776,924,-3663
5893,1773,969,-3663
5894,1710,969,-3594
5895,1710,996,-3609
5896,1644,996,-3609
5897,1644,924,-3558
5898,1716,780,-3558
5899,1776,780,-3498
5900,1776,768,-3516
5901,1827,867,-3516
5902,1827,867,-3564
5903,1845,984,-3564
5904,1869,984,-3558
5905,1869,984,-3543
5906,1878,936,-3543
5907,1878,936,-3453
5908,1866,912,-3453
5909,1782,912,-3483
5910,1782,906,-3522
5911,1731,951,-3522
5912,1764,951,-3594
5913,1764,1035,-3564
5914,1761,1035,-3564
5915,1761,1008,-3612
5916,1860,993,-3612
5917,1809,993,-3567
5918,1809,954,-3678
5919,1854,954,-3678
5920,1854,909,-3678
5921,1887,906,-3678
5922,1860,906,-3714
5923,1860,930,-3723
5924,1902,990,-3723
5925,1902,990,-3654
5926,1899,882,-3654
5927,1797,882,-3609
5928,1797,975,-3642
5929,1749,924,-3642
5930,1686,924,-3603
5931,1686,960,-3603
5932,1629,960,-3609
5933,1629,948,-3738
5934,1692,1056,-3738
5935,1629,1056,-3915
5936,1629,870,-3909
5937,1938,870,-3909
5938,1938,720,-4038
5939,2031,798,-4038
