sequence,AccelerometerX,AccelerometerY,AccelerometerZ
0,1731,-174,3747
1,1731,-192,3636
2,1557,-192,3636
3,1557,-168,3831
4,1749,-153,3831
5,1638,-153,3771
6,1638,-159,3594
7,1698,-177,3594
8,1698,-177,3702
9,1971,-159,3702
10,1800,-159,3561
11,1800,-237,3636
12,1761,-150,3636
13,1761,-150,3741
14,1719,-198,3741
15,1731,-198,3666
16,1731,-192,3639
17,1752,-204,3639
18,1752,-204,3624
19,1809,-174,3624
20,1683,-174,3684
21,1683,-144,3750
22,1821,-174,3750
23,1821,-174,3750
24,1512,6,3750
25,2286,6,3936
26,2286,288,3897
27,2244,-6,3897
28,2244,-6,3786
29,1782,-120,3786
30,1329,-120,4005
31,1329,-198,4053
32,1125,-183,4053
33,1581,-183,4167
34,1581,-228,4167
35,1683,-228,4032
36,1683,-450,3936
37,1869,-369,3936
38,2178,-369,4077
39,2178,-141,4077
40,2946,-141,4332
41,2946,-588,4212
42,2658,-957,4212
43,3006,-957,3804
44,3006,-1167,3834
45,1740,-1167,3834
46,1740,-762,4050
47,1383,-795,4050
48,930,-795,4095
49,930,-621,4158
50,1287,-621,4158
51,1287,-396,3927
52,1206,-534,3927
53,1449,-534,3639
54,1449,-792,3288
55,1488,-792,3288
56,1488,-1083,2949
57,1779,-624,2949
58,2022,-624,2982
59,2022,27,3405
60,1647,27,3405
61,1647,-333,3516
62,882,-789,3516
63,906,-789,3513
64,906,-1035,3072
65,435,-1035,3072
66,435,-1740,2778
67,12,-1809,2778
68,-411,-1809,2889
69,-411,-1800,3159
70,-99,-1800,3159
71,-99,-1206,3318
72,-357,-1575,3318
73,-144,-1575,3525
74,-144,-1812,3375
75,-684,-1812,3375
76,-684,-2835,2400
77,-972,-2700,2400
78,708,-2700,2733
79,708,-1656,3531
80,459,-906,3531
81,459,-906,4188
82,330,-1122,4188
83,-144,-1122,4032
84,-144,-2343,3483
85,-477,-3510,3483
86,-477,-3510,3234
87,-219,-3648,3234
88,-378,-3648,2979
89,-378,-3048,2919
90,-402,-1644,2919
91,-402,-1644,3429
92,123,-1023,3429
93,606,-1023,4266
94,606,-1782,4221
95,357,-2424,4221
96,357,-2424,4035
97,-42,-2709,4035
98,-567,-2709,3870
99,-567,-2670,3834
100,-618,-2181,3834
101,-618,-2181,3801
102,-249,-1806,3801
103,354,-1806,3957
104,354,-1839,4011
105,753,-1719,4011
106,753,-1719,4101
107,1047,-1977,4101
108,747,-1977,4080
109,747,-1932,4092
110,417,-1938,4092
111,69,-1938,4050
112,69,-1965,4050
113,60,-1965,3930
114,60,-1662,3951
115,90,-1671,3951
116,-9,-1671,3966
117,-9,-1746,3966
118,198,-1746,3927
119,198,-1584,3915
120,333,-1359,3915
121,627,-1359,4005
122,627,-1065,3789
123,381,-1065,3789
124,381,-1110,3765
125,459,-1101,3765
126,324,-1101,3741
127,324,-990,3720
128,-9,-990,3720
129,-9,-1185,3831
130,-162,-1254,3831
131,-348,-1254,3966
132,-348,-966,4155
133,-393,-966,4155
134,-393,-762,4071
135,-549,-816,4071
136,-555,-816,3870
137,-555,-933,3621
138,-396,-933,3621
139,-396,-873,3453
140,-111,-1083,3453
141,108,-1083,3339
142,108,-1122,3288
143,195,-1122,3288
144,195,-1020,3375
145,306,-819,3375
146,297,-819,3339
147,297,-813,3450
148,426,-813,3450
149,426,-936,3675
150,441,-1062,3675
151,372,-1062,3876
152,372,-969,4110
153,105,-969,4110
154,105,-804,4176
155,-33,-528,4176
156,81,-528,4368
157,81,-405,4518
158,339,-381,4518
159,339,-381,4599
160,348,-420,4599
161,96,-420,4554
162,96,-387,4437
163,-99,-378,4437
164,-99,-378,4383
165,-24,-348,4383
166,354,-348,4206
167,354,-339,4233
168,609,-495,4233
169,609,-495,4131
170,390,-465,4131
171,249,-465,3987
172,249,-249,3927
173,156,-225,3927
174,156,-225,3912
175,228,-72,3912
176,555,-72,3891
177,555,108,3951
178,771,30,3951
179,789,30,3786
180,789,84,3786
181,720,84,3726
182,720,-114,3762
183,831,72,3762
184,717,72,3897
185,717,117,3897
186,663,117,3867
187,663,-159,3765
188,657,-474,3765
189,591,-474,3741
190,591,-609,3777
191,720,-609,3777
192,720,-627,3852
193,990,-627,3852
194,936,-627,4140
195,936,-501,4116
196,684,-501,4116
197,684,-741,4191
198,555,-654,4191
199,546,-654,4272
200,546,-366,4398
201,579,-366,4398
202,579,-264,4539
203,630,-348,4539
204,642,-348,4644
205,642,-381,4668
206,501,-381,4668
207,501,-168,4647
208,381,-135,4647
209,384,-135,4698
210,384,-96,4614
211,510,-96,4614
212,510,-390,4473
213,570,-609,4473
214,681,-609,4344
215,681,-552,4338
216,783,-474,4338
217,783,-474,4344
218,759,-474,4344
219,804,-474,4302
220,804,-501,4296
221,1062,-354,4296
222,1062,-354,4317
223,1251,-228,4317
224,1314,-228,4389
225,1314,-393,4338
226,1512,-510,4338
227,1512,-510,4464
228,1758,-534,4464
229,1854,-534,4527
230,1854,-192,4638
231,1779,-180,4638
232,1779,-180,4614
233,1695,-348,4614
234,1614,-348,4527
235,1614,-552,4437
236,1770,-504,4437
237,1770,-504,4464
238,2052,-312,4464
239,2214,-312,4593
240,2214,-93,4743
241,2016,-168,4743
242,1887,-168,4623
243,1887,-345,4623
244,1542,-345,4317
245,1542,-582,3972
246,1809,-444,3972
247,2880,-444,3957
248,2880,978,3957
249,3147,978,4233
250,3147,1923,4062
251,2355,1809,4062
252,1713,1809,3786
253,1713,1335,3786
254,1194,1335,3669
255,1194,1137,3726
256,2601,1464,3726
257,3522,1464,3831
258,3522,1491,3585
259,2808,1491,3585
260,2808,1077,3147
261,1521,948,3147
262,1533,948,3033
263,1533,861,2868
264,1977,861,2868
265,1977,1185,2928
266,2817,1242,2928
267,2007,1242,2598
268,2007,930,2562
269,1113,930,2562
270,1113,1062,2736
271,1185,1404,2736
272,1470,1404,2622
273,1470,1248,2466
274,1665,1248,2466
275,1665,600,2250
276,1401,291,2250
277,660,291,2445
278,660,627,2502
279,597,843,2502
280,597,843,2286
281,1434,234,2286
282,1047,234,1830
283,1047,27,1944
284,1005,684,1944
285,1005,684,2076
286,438,825,2076
287,-798,825,1941
288,-798,249,1920
289,-1110,12,1920
290,-1110,12,1839
291,-858,465,1839
292,-291,465,1995
293,-291,1542,2250
294,708,1722,2250
295,708,1722,2295
296,1518,1815,2295
297,1659,1815,2337
298,1659,2055,1974
299,1287,2679,1974
300,540,2679,1383
301,540,3228,1383
302,237,3228,1278
303,237,3129,1251
304,444,3150,1251
305,651,3150,1233
306,651,3450,1233
307,459,3450,1128
308,459,3321,936
309,993,3147,936
310,1878,3147,1161
311,1878,3111,1161
312,2304,3111,1644
313,2304,2913,1773
314,2361,2970,1773
315,2274,2970,1869
316,2274,3138,1854
317,2334,3138,1854
318,2334,3573,2094
319,2574,3927,2094
320,2790,3927,2214
321,2790,3960,2085
322,3036,3960,2085
323,3036,3654,2214
324,3231,3813,2214
325,2982,3813,2295
326,2982,4071,1833
327,2763,4071,1833
328,2763,4122,1353
329,2406,3939,1353
330,2214,3939,966
331,2214,3846,786
332,2319,3846,786
333,2319,4011,681
334,2124,4359,681
335,2199,4359,474
336,2199,4254,354
337,2190,4254,354
338,2190,4404,315
339,1794,4776,315
340,1527,4776,219
341,1527,5052,54
342,1434,5151,54
343,1434,5151,69
344,1323,5247,69
345,1284,5247,15
346,1284,5457,-72
347,1182,5634,-72
348,1182,5634,-93
349,1164,5589,-93
350,1020,5589,-192
351,1020,5634,-306
352,666,5757,-306
353,666,5757,-528
354,507,5598,-528
355,348,5598,-684
356,348,5334,-774
357,417,4470,-774
358,417,4470,-855
359,330,3573,-855
360,84,3573,-864
361,84,3105,-744
362,-105,2709,-744
363,-105,2709,-774
364,-135,2424,-774
365,-78,2424,-588
366,-78,2268,-414
367,-81,2424,-414
368,-9,2424,-246
369,-9,2466,-246
370,33,2466,-117
371,33,2670,-87
372,-111,2625,-87
373,-114,2625,-198
374,-114,2910,-198
375,-36,2910,-177
376,-36,3507,-33
377,123,3777,-33
378,27,3777,54
379,27,4437,54
380,-288,4437,-63
381,-288,5106,-198
382,-387,5982,-198
383,39,5982,-231
384,39,6057,-273
385,189,6057,-273
386,189,6141,-357
387,138,5946,-357
388,-78,5946,-384
389,-78,5688,-474
390,-342,5688,-474
391,-342,5424,-372
392,-558,5223,-372
393,-684,5223,-339
394,-684,4755,-258
395,-471,4755,-258
396,-471,4338,-96
397,-402,4104,-96
398,-489,4104,-66
399,-489,4221,-78
400,-609,4221,-78
401,-609,4146,-153
402,-609,3909,-153
403,-432,3909,-102
404,-432,3801,15
405,-210,3858,15
406,-210,3858,-102
407,-102,4044,-102
408,168,4044,18
409,168,4233,105
410,318,4338,105
411,318,4338,75
412,177,4365,75
413,-159,4365,54
414,-159,4389,78
415,-471,4227,78
416,-471,4227,30
417,-600,4089,30
418,-648,4089,9
419,-648,3909,-18
420,-636,3858,-18
421,-636,3858,-102
422,-678,3870,-102
423,-513,3870,-216
424,-513,3822,-258
425,-267,3834,-258
426,3,3834,-327
427,3,3876,-327
428,177,3876,-246
429,177,3828,-288
430,189,3735,-288
431,123,3735,-288
432,123,3708,-288
433,-18,3708,-246
434,-18,3708,-198
435,-75,3744,-198
436,-45,3744,-207
437,-45,3783,-36
438,-57,3783,-36
439,-57,3852,54
440,-177,3888,54
441,-183,3888,69
442,-183,3912,165
443,-84,3912,165
444,-84,4005,120
445,-6,4185,120
446,114,4185,183
447,114,4326,258
448,105,4326,258
449,105,4356,210
450,90,4428,210
451,201,4428,120
452,201,4704,210
453,303,4704,210
454,303,4905,264
455,249,4716,264
456,336,4716,195
457,336,4392,204
458,420,4392,204
459,420,4062,255
460,486,3897,255
461,444,3897,450
462,444,3843,555
463,249,3843,555
464,249,3825,702
465,177,3927,702
466,27,3927,771
467,27,4113,696
468,-114,4368,696
469,-114,4368,675
470,-219,4407,675
471,-267,4407,594
472,-267,4353,525
473,-99,4185,525
474,-99,4185,564
475,3,3993,564
476,174,3993,615
477,174,4002,642
478,246,3987,642
479,246,3987,645
480,255,3882,645
481,228,3882,606
482,228,3696,516
483,210,3549,516
484,210,3549,459
485,252,3537,459
486,354,3537,486
487,354,3678,474
488,420,3684,474
489,420,3684,534
490,387,3729,534
491,363,3729,504
492,363,3765,540
493,351,3855,540
494,351,3855,591
495,156,3969,591
496,-48,3969,651
497,-48,4131,555
498,-96,4167,555
499,3,4167,645
500,3,4227,645
501,174,4227,657
502,174,4245,555
503,192,4167,555
504,90,4167,531
505,90,4014,531
506,-48,4014,435
507,-48,3957,405
508,36,3894,405
509,75,3894,300
510,75,3807,300
511,81,3807,414
512,81,3876,456
513,-99,3906,456
514,-96,3906,414
515,-96,3900,414
516,96,3900,375
517,96,3789,309
518,138,3756,309
519,96,3756,324
520,96,3906,270
521,45,3906,270
522,45,4155,315
523,159,4323,315
524,261,4323,339
525,261,4518,249
526,219,4518,249
527,219,4593,288
528,111,4491,288
529,93,4491,165
530,93,4401,168
531,147,4401,168
532,147,4257,279
533,267,4191,279
534,279,4191,270
535,279,4161,381
536,207,4161,381
537,207,4098,384
538,129,4065,384
539,63,4065,396
540,63,4041,519
541,-48,4041,519
542,-48,3942,441
543,-147,3885,441
544,-102,3885,450
545,-102,3882,390
546,-12,3978,390
547,-12,3978,345
548,9,4074,345
549,60,4074,354
550,60,4056,240
551,48,4044,240
552,48,4044,153
553,78,4047,153
554,87,4047,168
555,87,4038,174
556,21,4113,174
557,21,4113,264
558,-12,4137,264
559,123,4137,285
560,123,4116,285
561,246,4065,285
562,246,4065,303
563,225,4032,303
564,87,4032,273
565,87,4002,288
566,54,4008,288
567,54,4008,225
568,90,4041,225
569,141,4041,330
570,141,4113,330
571,45,4149,330
572,-24,4149,399
573,-24,4155,399
574,24,4155,351
575,24,4155,294
576,87,4131,294
577,105,4131,375
578,105,4122,375
579,117,4122,303
580,117,4134,336
581,75,4101,336
582,72,4101,351
583,72,4122,375
584,132,4122,375
585,132,4107,315
586,156,4107,315
587,138,4107,321
588,138,4071,225
589,75,4071,225
590,75,3966,264
591,21,4002,264
592,21,4002,255
593,21,4023,321
594,9,4023,321
595,9,4038,330
596,6,4086,330
597,-96,4086,330
598,-96,4119,354
599,-21,4119,354
600,-21,4089,285
601,57,4086,285
602,126,4086,249
603,126,4065,228
604,186,4065,228
605,186,4086,210
606,234,4032,210
607,174,4032,213
608,174,4050,273
609,87,4050,273
610,87,4035,285
611,21,4071,285
612,78,4071,264
613,78,4086,279
614,129,4086,279
615,129,4068,210
616,174,4071,210
617,150,4071,279
618,150,4092,228
619,117,4113,228
620,117,4113,210
621,168,4080,210
622,183,4080,204
623,183,4101,285
624,72,4110,285
625,72,4110,255
626,96,4122,255
627,48,4122,285
628,48,4074,279
629,126,4050,279
630,126,4050,303
631,129,4056,303
632,57,4056,273
633,57,4086,324
634,30,4068,324
635,30,4068,321
636,9,4119,321
637,57,4119,360
638,57,4143,300
639,105,4149,300
640,72,4149,288
641,72,4161,288
642,69,4161,381
643,69,4125,324
644,72,4110,324
645,42,4110,360
646,42,4059,360
647,45,4059,345
648,45,4089,324
649,18,4098,324
650,-15,4098,330
651,-15,4098,390
652,27,4098,390
653,27,4059,345
654,-24,4041,345
655,-72,4041,294
656,-72,4065,279
657,99,4065,279
658,99,4062,234
659,162,4071,234
660,156,4071,255
661,156,3999,183
662,129,3999,183
663,129,4032,195
664,165,4071,195
665,201,4071,204
666,201,4050,189
667,237,4050,189
668,237,4044,210
669,225,4071,210
670,201,4071,129
671,201,4083,168
672,45,4083,168
673,45,4083,210
674,69,4062,210
675,132,4062,228
676,132,4059,159
677,87,4059,159
678,87,4050,225
679,231,4008,225
680,390,4008,180
681,390,4038,180
682,363,4038,180
683,363,4071,228
684,420,4065,228
685,390,4065,183
686,390,4062,183
687,282,4062,183
688,282,3996,228
689,267,4005,228
690,303,4005,249
691,303,4005,225
692,252,4047,225
693,252,4047,270
694,213,4125,270
695,144,4125,225
696,144,4239,198
697,63,4218,198
698,63,4218,258
699,-57,4155,258
700,-270,4155,219
701,-270,4086,264
702,-279,4143,264
703,-279,4143,285
704,-279,4197,285
705,-231,4197,300
706,-231,4209,351
707,-96,4191,351
708,-96,4191,285
709,-21,4113,285
710,12,4113,258
711,12,4023,195
712,-66,3906,195
713,-66,3906,273
714,-120,3852,273
715,-150,3852,234
716,-150,3732,195
717,-168,3489,195
718,-219,3489,150
719,-219,3213,150
720,-354,3213,30
721,-354,3252,-27
722,-489,3606,-27
723,-327,3606,-18
724,-327,4065,-18
725,108,4065,279
726,108,4479,429
727,369,4950,429
728,603,4950,681
729,603,4932,681
730,576,4932,726
731,576,4686,651
732,333,4527,651
733,123,4527,609
734,123,4416,615
735,-162,4416,615
736,-162,4371,606
737,-270,4164,606
738,-387,4164,585
739,-387,4164,510
740,-309,4164,510
741,-309,4125,456
742,-96,4119,456
743,69,4119,435
744,69,3876,354
745,141,3876,354
746,141,4050,285
747,216,4041,285
748,330,4041,198
749,330,3984,204
750,420,3984,204
751,420,3939,249
752,525,3954,249
753,543,3954,294
754,543,4101,414
755,504,4101,414
756,504,4233,450
757,315,4365,450
758,162,4365,495
759,162,4257,444
760,-33,4257,444
761,-33,4146,339
762,-57,4056,339
763,75,4056,288
764,75,3990,219
765,243,4011,219
766,243,4011,204
767,375,3966,204
768,459,3966,174
769,459,3996,183
770,357,3927,183
771,357,3927,285
772,294,3960,285
773,294,3960,336
774,294,4032,324
775,318,4065,324
776,318,4065,540
777,264,4173,540
778,234,4173,630
779,234,4239,624
780,213,4221,624
781,213,4221,594
782,186,4116,594
783,63,4116,546
784,63,3957,474
785,21,3990,474
786,-66,3990,381
787,-66,3978,381
788,-162,3978,309
789,-162,3990,285
790,-273,4056,285
791,-306,4056,351
792,-306,4119,351
793,-384,4119,354
794,-384,4191,330
795,-429,4197,330
796,-351,4197,321
797,-351,4164,321
798,-279,4164,330
799,-279,4083,285
800,-216,3984,285
801,-327,3984,210
802,-327,4008,210
803,-348,4008,270
804,-348,4065,219
805,-360,4110,219
806,-267,4110,309
807,-267,4101,309
808,-237,4101,243
809,-237,4041,288
810,-279,3981,288
811,-339,3981,234
812,-339,3981,210
813,-372,3981,210
814,-372,3933,219
815,-372,3945,219
816,-351,3945,138
817,-351,3939,174
818,-249,3939,174
819,-249,3948,108
820,-147,3996,108
821,-108,3996,213
822,-108,4110,183
823,-81,4110,183
824,-81,4158,90
825,-21,4185,90
826,75,4185,75
827,75,4176,-12
828,207,4176,-12
829,207,4197,-12
830,132,4200,-12
831,228,4200,-57
832,228,4212,-36
833,258,4212,-36
834,258,4272,9
835,324,4287,9
836,372,4287,-6
837,372,4227,18
838,441,4242,18
839,441,4242,0
840,546,4203,0
841,492,4203,-27
842,492,4176,-66
843,402,4113,-66
844,402,4113,-21
845,285,4059,-21
846,300,4059,-141
847,300,4074,-147
848,318,4113,-147
849,318,4113,-63
850,315,4209,-63
851,276,4209,9
852,276,4278,39
853,144,4275,39
854,144,4275,105
855,96,4269,105
856,60,4269,69
857,60,4185,45
858,60,4155,45
859,111,4155,99
860,111,4188,99
861,54,4188,-18
862,54,4218,45
863,0,4197,45
864,-51,4197,9
865,-51,4227,9
866,-96,4227,-18
867,-96,4206,0
868,-24,4191,0
869,-12,4191,-63
870,-12,4212,-33
871,-51,4212,-33
872,-51,4227,-36
873,-102,4230,-36
874,-132,4230,15
875,-132,4185,39
876,-177,4185,39
877,-177,4167,18
878,-144,4161,18
879,-114,4161,33
880,-114,4149,45
881,-162,4149,45
882,-162,4134,33
883,-228,4107,33
884,-240,4107,54
885,-240,4053,93
886,-306,4095,93
887,-306,4095,129
888,-300,4068,129
889,-318,4068,108
890,-318,4065,99
891,-306,4068,99
892,-306,4068,39
893,-273,4062,39
894,-297,4062,90
895,-297,4044,54
896,-246,4032,54
897,-246,4032,18
898,-180,4086,18
899,-129,4086,-42
900,-129,4098,90
901,-93,4146,90
902,-93,4146,24
903,-30,4095,24
904,-48,4095,144
905,-48,4044,84
906,-75,3993,84
907,-90,3993,105
908,-90,3975,105
909,-90,3975,195
910,-90,3966,255
911,-78,3996,255
912,-78,3996,285
913,-78,3972,285
914,-102,3972,345
915,-102,3972,273
916,-48,3951,273
917,-72,3951,324
918,-72,3987,294
919,-99,3987,294
920,-99,4044,375
921,-120,4170,375
922,-249,4170,315
923,-249,4464,264
924,-372,4464,264
925,-372,4707,183
926,-498,4839,183
927,-447,4839,33
928,-447,4668,-81
929,-225,4668,-81
930,-225,4365,-93
931,-78,3999,-93
932,174,3999,-153
933,174,3789,-42
934,228,3789,-42
935,228,3576,45
936,156,3564,45
937,117,3564,234
938,117,3576,375
939,60,3576,375
940,60,3651,390
941,3,3750,390
942,-84,3750,435
943,-84,3804,381
944,-228,3804,381
945,-228,3855,435
946,-351,3879,435
947,-441,3879,294
948,-441,3966,309
949,-474,3966,309
950,-474,3963,294
951,-471,4101,294
952,-339,4101,339
953,-339,4203,273
954,-282,4164,273
955,-282,4164,339
956,-264,4227,339
957,-321,4227,390
958,-321,4248,471
959,-273,4125,471
960,-273,4125,594
961,-237,4137,594
962,-264,4137,642
963,-264,4083,579
964,-180,4035,579
965,-180,4035,570
966,-60,4068,570
967,57,4068,594
968,57,4152,576
969,141,4182,576
970,141,4182,519
971,123,4233,519
972,75,4233,540
973,75,4245,549
974,6,4134,549
975,-84,4134,576
976,-84,4023,576
977,-132,4023,606
978,-132,4026,621
979,-141,3996,621
980,-189,3996,702
981,-189,3945,702
982,-255,3945,705
983,-255,3870,765
984,-315,3882,765
985,-267,3882,732
986,-267,3936,732
987,-159,3936,816
988,-159,4062,771
989,-111,4119,771
990,-48,4119,717
991,-48,4083,717
992,-66,4083,690
993,-66,4017,705
994,0,3990,705
995,-42,3990,690
996,-42,4056,741
997,-78,4056,741
998,-78,4086,642
999,-24,4008,642
1000,147,4008,636
1001,147,4032,579
1002,192,4032,579
1003,192,4023,444
1004,231,4020,444
1005,324,4020,450
1006,324,4008,459
1007,348,4008,459
1008,348,4032,474
1009,321,4149,474
1010,246,4149,504
1011,246,4218,501
1012,219,4218,501
1013,219,4182,564
1014,333,4185,564
1015,384,4185,486
1016,384,4233,594
1017,357,4236,594
1018,357,4236,606
1019,252,4200,606
1020,201,4200,621
1021,201,4122,630
1022,285,3996,630
1023,285,3996,624
1024,315,3987,624
1025,321,3987,540
1026,321,4041,642
1027,243,4059,642
1028,243,4059,579
1029,141,3990,579
1030,27,3990,585
1031,27,3927,510
1032,18,4002,510
1033,18,4002,564
1034,78,4131,564
1035,96,4131,585
1036,96,4185,630
1037,6,4134,630
1038,-150,4134,594
1039,-150,4023,594
1040,-183,4023,591
1041,-183,3954,579
1042,-204,4002,579
1043,-189,4002,621
1044,-189,4083,621
1045,-249,4083,624
1046,-249,4074,672
1047,-327,3999,672
1048,-354,3999,540
1049,-354,3885,630
1050,-318,3885,630
1051,-318,3879,564
1052,-306,3921,564
1053,-264,3921,471
1054,-264,4011,579
1055,-213,4011,579
1056,-213,3972,420
1057,-183,3948,420
1058,-135,3948,411
1059,-135,3921,384
1060,-129,3921,384
1061,-129,3981,429
1062,-114,4008,429
1063,-108,4008,411
1064,-108,4098,516
1065,-117,4098,516
1066,-117,4008,489
1067,-135,4005,489
1068,-186,4005,456
1069,-186,3984,396
1070,-234,3984,396
1071,-234,4002,486
1072,-231,3975,486
1073,-246,3975,504
1074,-246,3981,510
1075,-195,4014,510
1076,-195,4014,456
1077,-180,4095,456
1078,-171,4095,486
1079,-171,4131,519
1080,-201,4104,519
1081,-201,4104,510
1082,-258,4038,510
1083,-255,4038,561
1084,-255,4059,456
1085,-309,4107,456
1086,-309,4107,489
1087,-267,4074,489
1088,-264,4074,531
1089,-264,4035,576
1090,-270,4032,576
1091,-270,4032,504
1092,-252,4032,504
1093,-339,4032,549
1094,-339,4041,531
1095,-297,4002,531
1096,-297,4002,564
1097,-339,3972,564
1098,-357,3972,594
1099,-357,4038,630
1100,-282,4116,630
1101,-282,4116,630
1102,-288,4131,630
1103,-342,4131,630
1104,-342,4077,615
1105,-339,3993,615
1106,-357,3993,549
1107,-357,3966,549
1108,-321,3966,489
1109,-321,3999,576
1110,-393,4011,576
1111,-360,4011,594
1112,-360,3972,594
1113,-387,3972,549
1114,-387,4014,480
1115,-435,4038,480
1116,-474,4038,450
1117,-474,4083,450
1118,-525,4083,375
1119,-525,4080,384
1120,-513,4002,384
1121,-513,4002,330
1122,-513,3978,339
1123,-492,3978,339
1124,-492,3999,366
1125,-594,4038,366
1126,-585,4038,273
1127,-585,4026,264
1128,-564,4026,264
1129,-564,4038,354
1130,-567,4032,354
1131,-549,4032,288
1132,-549,4131,294
1133,-513,4131,294
1134,-513,4125,228
1135,-510,4107,228
1136,-447,4107,288
1137,-447,4017,444
1138,-477,4017,444
1139,-477,4026,474
1140,-513,4089,474
1141,-561,4089,549
1142,-561,4065,606
1143,-546,4062,606
1144,-546,4062,501
1145,-405,4089,501
1146,-291,4089,564
1147,-291,4113,504
1148,-282,4155,504
1149,-282,4155,516
1150,-303,4179,516
1151,-321,4179,525
1152,-321,4191,600
1153,-255,4203,600
1154,-255,4203,516
1155,-255,4200,516
1156,-258,4200,501
1157,-258,4230,516
1158,-303,4203,516
1159,-303,4203,531
1160,-240,4128,531
1161,-201,4128,441
1162,-201,4086,339
1163,-186,4068,339
1164,-186,4068,369
1165,-132,4041,369
1166,-66,4041,441
1167,-66,4047,414
1168,9,4017,414
1169,3,4017,426
1170,3,3999,426
1171,-99,3999,465
1172,-99,4002,540
1173,-162,3996,540
1174,-195,3996,594
1175,-195,3978,594
1176,-111,3978,624
1177,-111,3903,630
1178,-66,3963,630
1179,-78,3963,681
1180,-78,4002,681
1181,-81,4002,687
1182,-81,4059,777
1183,36,4161,777
1184,198,4161,792
1185,198,3951,780
1186,162,3951,780
1187,162,3894,630
1188,-84,3963,630
1189,-201,3963,750
1190,-201,4029,846
1191,-231,4029,846
1192,-231,4080,825
1193,-315,4125,825
1194,-327,4125,771
1195,-327,4092,747
1196,-246,4092,747
1197,-246,4221,642
1198,-153,4149,642
1199,-111,4149,576
1200,-111,4032,549
1201,-102,4032,549
1202,-102,3783,489
1203,-99,3588,489
1204,36,3588,420
1205,36,3630,390
1206,156,3630,390
1207,156,3702,321
1208,255,3861,321
1209,276,3861,456
1210,276,3912,384
1211,156,4065,384
1212,156,4065,459
1213,-30,4161,459
1214,-129,4161,390
1215,-129,4182,336
1216,-231,4308,336
1217,-231,4308,228
1218,-126,4464,228
1219,-9,4464,255
1220,-9,4506,324
1221,9,4479,324
1222,9,4479,234
1223,-75,4422,234
1224,-141,4422,153
1225,-141,4383,78
1226,-228,4431,78
1227,-228,4431,45
1228,-150,4359,45
1229,-114,4359,-42
1230,-114,4293,-33
1231,-117,4227,-33
1232,-99,4227,-87
1233,-99,4152,-87
1234,-174,4152,-117
1235,-174,4119,-117
1236,-153,4065,-117
1237,-153,4065,-177
1238,-153,4053,-177
1239,-102,4053,-177
1240,-102,4017,-207
1241,-96,4056,-207
1242,-201,4056,-168
1243,-201,4080,-168
1244,-300,4080,-201
1245,-300,4017,-183
1246,-324,4014,-183
1247,-345,4014,-237
1248,-345,4005,-237
1249,-381,4005,-252
1250,-381,4065,-237
1251,-357,4041,-237
1252,-357,4041,-222
1253,-357,4050,-222
1254,-351,4050,-237
1255,-351,4044,-237
1256,-255,4125,-237
1257,-138,4125,-207
1258,-138,4215,-207
1259,-66,4215,-87
1260,-66,4245,-171
1261,-57,4251,-171
1262,-69,4251,-171
1263,-69,4203,-171
1264,-102,4203,-81
1265,-102,4116,-153
1266,-183,4107,-153
1267,-216,4107,-87
1268,-216,4116,-87
1269,-138,4116,-36
1270,-138,4119,-63
1271,-195,4110,-63
1272,-189,4110,48
1273,-189,4104,48
1274,-168,4104,3
1275,-168,4080,48
1276,-168,4083,48
1277,-132,4083,0
1278,-132,4104,48
1279,-135,4104,48
1280,-135,4089,60
1281,-126,4107,60
1282,-147,4107,33
1283,-147,4080,60
1284,-165,4080,60
1285,-165,4056,63
1286,-171,4044,63
1287,-240,4044,63
1288,-240,4047,78
1289,-279,4047,78
1290,-279,4086,78
1291,-222,4080,78
1292,-135,4080,75
1293,-135,4026,54
1294,-171,4026,54
1295,-171,4110,30
1296,-285,4119,30
1297,-285,4119,99
1298,-285,4152,84
1299,-216,4152,84
1300,-216,4167,30
1301,-204,4245,30
1302,-204,4245,90
1303,-204,4257,93
1304,-135,4257,93
1305,-135,4209,120
1306,-159,4128,120
1307,-297,4128,225
1308,-297,4074,309
1309,-426,4101,309
1310,-426,4101,288
1311,-426,4125,288
1312,-387,4125,294
1313,-387,4089,288
1314,-357,3984,288
1315,-357,3984,321
1316,-396,3957,321
1317,-441,3957,249
1318,-441,4011,153
1319,-387,4032,153
1320,-387,4032,138
1321,-372,4035,138
1322,-384,4035,204
1323,-384,4032,150
1324,-462,4062,150
1325,-462,4062,138
1326,-411,3984,138
1327,-444,3984,225
1328,-444,4038,354
1329,-528,4029,354
1330,-510,4029,249
1331,-510,4086,249
1332,-369,4086,321
1333,-369,4077,351
1334,-300,4023,351
1335,-354,4023,390
1336,-354,4026,390
1337,-477,4026,405
1338,-477,3978,336
1339,-462,3906,336
1340,-390,3906,474
1341,-390,3849,474
1342,-327,3849,495
1343,-327,3840,630
1344,-321,3906,630
1345,-327,3906,636
1346,-327,3951,636
1347,-303,3951,636
1348,-303,3939,717
1349,-306,3936,717
1350,-306,3936,717
1351,-306,3975,687
1352,-282,3975,687
1353,-282,4011,702
1354,-249,4077,702
1355,-309,4077,732
1356,-309,4254,747
1357,-288,4254,747
1358,-288,4302,696
1359,-303,4317,696
1360,-249,4317,660
1361,-249,4317,609
1362,-213,4317,609
1363,-213,4179,702
1364,-258,4161,702
1365,-333,4161,780
1366,-333,4197,846
1367,-390,4137,846
1368,-390,4137,870
1369,-339,4083,870
1370,-270,4083,861
1371,-270,4056,900
1372,-216,4047,900
1373,-216,4047,837
1374,-255,4026,837
1375,-270,4026,795
1376,-270,3999,777
1377,-252,3990,777
1378,-252,3990,801
1379,-237,3999,801
1380,-249,3999,780
1381,-249,4026,741
1382,-360,4041,741
1383,-360,4041,756
1384,-357,4083,756
1385,-321,4083,735
1386,-321,4044,636
1387,-222,4068,636
1388,-216,4068,636
1389,-216,4098,636
1390,-237,4098,642
1391,-237,4086,630
1392,-297,4053,630
1393,-357,4053,687
1394,-357,3978,687
1395,-360,3978,690
1396,-360,3948,681
1397,-315,3936,681
1398,-270,3936,702
1399,-270,3885,702
1400,-303,3885,696
1401,-303,3915,726
1402,-288,3915,726
1403,-318,3915,666
1404,-318,3930,624
1405,-267,3930,624
1406,-267,3945,636
1407,-291,3966,636
1408,-297,3966,666
1409,-297,3939,579
1410,-318,3939,579
1411,-318,3930,624
1412,-285,3978,624
1413,-264,3978,651
1414,-264,3960,591
1415,-237,3960,591
1416,-237,3951,645
1417,-273,3924,645
1418,-351,3924,642
1419,-351,3894,642
1420,-390,3885,642
1421,-390,3885,690
1422,-375,3945,690
1423,-285,3945,666
1424,-285,3930,690
1425,-321,3942,690
1426,-321,3942,687
1427,-387,3930,687
1428,-438,3930,702
1429,-438,3942,696
1430,-396,3984,696
1431,-396,3984,624
1432,-351,4044,624
1433,-321,4044,705
1434,-321,4053,747
1435,-378,4038,747
1436,-378,4038,681
1437,-372,4032,681
1438,-372,4032,642
1439,-372,4017,717
1440,-336,4044,717
1441,-336,4044,705
1442,-411,4038,705
1443,-474,4038,696
1444,-474,4098,660
1445,-387,4008,660
1446,-387,4008,681
1447,-387,3933,681
1448,-540,3933,606
1449,-540,3870,621
1450,-591,3912,621
1451,-576,3912,642
1452,-576,3981,642
1453,-489,3981,645
1454,-489,4041,660
1455,-438,4074,660
1456,-459,4074,651
1457,-459,4029,651
1458,-444,4029,645
1459,-444,4008,630
1460,-471,3996,630
1461,-417,3996,660
1462,-417,3987,636
1463,-342,3987,636
1464,-342,4038,726
1465,-300,4059,726
1466,-291,4059,702
1467,-291,4056,642
1468,-387,4056,642
1469,-387,4044,630
1470,-360,4026,630
1471,-369,4026,636
1472,-369,4032,630
1473,-333,4032,630
1474,-333,3999,564
1475,-180,3930,564
1476,-147,3930,630
1477,-147,3954,591
1478,-201,3954,591
1479,-201,3972,576
1480,-252,3972,576
1481,-270,3972,630
1482,-270,3951,636
1483,-318,3951,636
1484,-318,3954,621
1485,-315,4002,621
1486,-282,4002,624
1487,-282,4065,666
1488,-306,4158,666
1489,-306,4158,672
1490,-369,4113,672
1491,-357,4113,642
1492,-357,4107,642
1493,-318,4086,642
1494,-318,4086,645
1495,-240,4143,645
1496,-249,4143,645
1497,-249,4116,660
1498,-318,4062,660
1499,-318,4062,651
1500,-339,3966,651
1501,-384,3966,642
1502,-384,3978,666
1503,-411,3999,666
1504,-411,3999,621
1505,-378,4032,621
1506,-318,4032,591
1507,-318,4017,555
1508,-318,4035,555
1509,-306,4035,594
1510,-306,4050,594
1511,-300,4050,576
1512,-300,4014,555
1513,-273,4026,555
1514,-228,4026,549
1515,-228,4077,549
1516,-195,4077,555
1517,-195,4074,531
1518,-147,4065,531
1519,-204,4065,621
1520,-204,4044,585
1521,-267,4044,585
1522,-267,4062,519
1523,-234,4056,519
1524,-183,4056,624
1525,-183,4041,594
1526,-171,4041,594
1527,-171,4065,600
1528,-129,4065,600
1529,-213,4065,561
1530,-213,4077,576
1531,-177,4077,576
1532,-177,4035,579
1533,-180,4056,579
1534,-189,4056,630
1535,-189,4047,642
1536,-258,4047,642
1537,-258,4035,615
1538,-357,4035,615
1539,-396,4035,642
1540,-396,4035,675
1541,-237,4035,675
1542,-237,4017,621
1543,-93,4047,621
1544,-114,4047,576
1545,-114,4053,525
1546,-144,4041,525
1547,-144,4041,561
1548,-195,4029,561
1549,-219,4029,519
1550,-219,4032,540
1551,-234,4083,540
1552,-234,4083,594
1553,-267,4086,594
1554,-219,4086,540
1555,-219,4038,546
1556,-222,4077,546
1557,-222,4077,504
1558,-246,4029,504
1559,-213,4029,501
1560,-213,4035,531
1561,-258,4077,531
1562,-258,4077,570
1563,-219,4017,570
1564,-246,4017,576
1565,-246,4011,546
1566,-318,4044,546
1567,-318,4044,585
1568,-303,4032,585
1569,-255,4032,585
1570,-255,4002,570
1571,-249,4050,570
1572,-318,4050,576
1573,-318,4092,576
1574,-354,4092,624
1575,-354,4092,687
1576,-273,4101,687
1577,-228,4101,672
1578,-228,4101,672
1579,-153,4101,621
1580,-153,4086,615
1581,-180,4101,615
1582,-249,4101,609
1583,-249,4089,660
1584,-351,4089,660
1585,-351,4032,651
1586,-396,3993,651
1587,-411,3993,576
1588,-411,4014,615
1589,-471,4014,615
1590,-471,4014,504
1591,-378,3888,504
1592,-324,3888,501
1593,-324,3900,591
1594,-492,3900,591
1595,-492,4017,609
1596,-654,4053,609
1597,-681,4053,681
1598,-681,4065,702
1599,-669,4065,702
1600,-669,4026,645
1601,-729,4053,645
1602,-642,4053,546
1603,-642,4023,504
1604,-396,4005,504
1605,-396,4005,474
1606,-81,3912,474
1607,-72,3912,465
1608,-72,4035,480
1609,-357,4080,480
1610,-357,4080,429
1611,-489,4053,429
1612,-372,4053,375
1613,-372,3948,471
1614,-288,3915,471
1615,-288,3915,591
1616,-537,3984,591
1617,-921,3984,681
1618,-921,4020,720
1619,-1125,4059,720
1620,-1125,4059,672
1621,-1215,3972,672
1622,-993,3972,636
1623,-993,3909,630
1624,-720,3927,630
1625,-720,3927,696
1626,-492,4041,696
1627,-465,4041,615
1628,-465,4065,606
1629,-549,4041,606
1630,-630,4041,609
1631,-630,3981,609
1632,-648,3981,642
1633,-648,4005,606
1634,-714,4104,606
1635,-564,4104,561
1636,-564,4062,561
1637,-498,4062,525
1638,-498,3990,564
1639,-561,3909,564
1640,-702,3909,585
1641,-702,3942,585
1642,-780,3942,570
1643,-780,3966,636
1644,-678,4005,636
1645,-606,4005,591
1646,-606,3984,636
1647,-474,3984,636
1648,-474,4035,606
1649,-576,4002,606
1650,-774,4002,564
1651,-774,3897,519
1652,-870,3897,519
1653,-870,3936,642
1654,-735,4041,642
1655,-531,4041,630
1656,-531,4086,621
1657,-582,4086,621
1658,-582,3999,621
1659,-780,3960,621
1660,-999,3960,555
1661,-999,3945,711
1662,-981,3981,711
1663,-981,3981,615
1664,-798,4059,615
1665,-678,4059,681
1666,-678,4134,675
1667,-288,4029,675
1668,-288,4029,519
1669,-834,3777,519
1670,-1566,3777,504
1671,-1566,3636,435
1672,-1875,3681,435
1673,-1875,3681,630
1674,-1197,3957,630
1675,-627,3957,735
1676,-627,4128,690
1677,-597,3993,690
1678,-597,3993,630
1679,-1311,3879,630
1680,-1500,3879,576
1681,-1500,3843,591
1682,-1464,4017,591
1683,-1464,4017,756
1684,-717,3966,756
1685,-720,3966,711
1686,-720,3882,630
1687,-987,3825,630
1688,-1320,3825,564
1689,-1320,3780,564
1690,-1599,3780,534
1691,-1599,3723,600
1692,-1488,3840,600
1693,-1095,3840,657
1694,-1095,3972,657
1695,-669,3972,702
1696,-669,3984,666
1697,-720,3921,666
1698,-1269,3921,675
1699,-1269,3774,675
1700,-1662,3774,564
1701,-1662,3672,564
1702,-1728,3672,564
1703,-1455,3672,609
1704,-1455,3699,609
1705,-1320,3699,672
1706,-1320,3744,579
1707,-1356,3768,579
1708,-1395,3768,642
1709,-1395,3792,594
1710,-1584,3792,594
1711,-1584,3810,651
1712,-1632,3777,651
1713,-1677,3777,681
1714,-1677,3864,696
1715,-1350,3864,696
1716,-1350,3915,732
1717,-1008,3903,732
1718,-1092,3903,717
1719,-1092,3858,732
1720,-1404,3858,732
1721,-1404,3726,651
1722,-1671,3774,651
1723,-1251,3774,651
1724,-1251,3858,666
1725,-897,3858,666
1726,-897,3855,651
1727,-1080,3801,651
1728,-1413,3801,624
1729,-1413,3711,600
1730,-1596,3711,600
1731,-1596,3741,636
1732,-1200,3867,636
1733,-981,3867,660
1734,-981,3888,681
1735,-1194,3786,681
1736,-1194,3786,606
1737,-1446,3774,606
1738,-1377,3774,579
1739,-1377,3789,666
1740,-1125,3858,666
1741,-1125,3858,675
1742,-1179,3900,675
1743,-1350,3900,711
1744,-1350,3876,624
1745,-1530,3756,624
1746,-1530,3756,636
1747,-1737,3807,636
1748,-1575,3807,609
1749,-1575,3852,621
1750,-1545,3867,621
1751,-1545,3867,549
1752,-1599,3654,549
1753,-1998,3654,429
1754,-1998,3579,366
1755,-2508,3426,366
1756,-2508,3426,285
1757,-2721,3477,285
1758,-2520,3477,153
1759,-2520,3639,33
1760,-1845,3864,33
1761,-879,3864,105
1762,-879,4017,105
1763,-366,4017,180
1764,-366,4083,354
1765,-477,4005,354
1766,-711,4005,354
1767,-711,3957,354
1768,-1011,3957,324
1769,-1011,3948,369
1770,-1032,3942,369
1771,-921,3942,294
1772,-921,3957,294
1773,-786,3957,321
1774,-786,3996,285
1775,-855,3996,285
1776,-783,3996,180
1777,-783,3972,120
1778,-636,3972,120
1779,-636,3975,120
1780,-339,4119,120
1781,-273,4119,129
1782,-273,4062,183
1783,-537,4062,183
1784,-537,4023,75
1785,-600,4050,75
1786,-309,4050,120
1787,-309,4080,90
1788,-186,4080,90
1789,-186,4152,198
1790,-162,4158,198
1791,-183,4158,183
1792,-183,4200,144
1793,-285,4200,144
1794,-285,4143,204
1795,-336,4095,204
1796,-540,4095,123
1797,-540,4032,33
1798,-687,4032,33
1799,-687,3993,-21
1800,-618,4080,-21
1801,-237,4080,-108
1802,-237,4179,-42
1803,-222,4101,-42
1804,-222,4101,-156
1805,-213,3999,-156
1806,-438,3999,-111
1807,-438,3978,-93
1808,-660,4149,-93
1809,-660,4149,-201
1810,-306,4215,-201
1811,-111,4215,-261
1812,-111,4110,-228
1813,-126,4053,-228
1814,-126,4053,-177
1815,-255,4062,-177
1816,-507,4062,-177
1817,-507,4068,-273
1818,-444,4095,-273
1819,-444,4095,-273
1820,-222,4092,-273
1821,-102,4092,-282
1822,-102,4074,-126
1823,-129,4107,-126
1824,-129,4107,-162
1825,-414,4209,-162
1826,-225,4209,-327
1827,-225,4257,-378
1828,222,4242,-378
1829,399,4242,-216
1830,399,4155,-216
1831,318,4155,-282
1832,318,4320,-282
1833,-12,4239,-282
1834,-285,4239,-291
1835,-285,4155,-291
1836,-249,4155,-318
1837,-249,4146,-372
1838,-33,4320,-372
1839,243,4320,-378
1840,243,4296,-378
1841,330,4296,-291
1842,330,4236,-444
1843,294,4092,-444
1844,174,4092,-387
1845,174,4062,-339
1846,132,4062,-339
1847,132,4176,-342
1848,198,4248,-342
1849,198,4248,-192
1850,198,4212,-243
1851,183,4212,-243
1852,183,4233,-126
1853,138,4134,-126
1854,51,4134,-48
1855,51,4140,-93
1856,-144,4140,-93
1857,-144,4041,-132
1858,-285,3996,-132
1859,-240,3996,-81
1860,-240,4014,-162
1861,-165,4014,-162
1862,-165,4035,-192
1863,-102,4110,-192
1864,-63,4110,-363
1865,-63,4107,-327
1866,-129,3987,-327
1867,-129,3987,-438
1868,-291,4029,-438
1869,-219,4029,-306
1870,-219,4143,-288
1871,-111,4131,-288
1872,-111,4131,-312
1873,75,4053,-312
1874,108,4053,-261
1875,108,4011,-252
1876,-36,4011,-252
1877,-36,4011,-231
1878,-138,3972,-231
1879,-147,3972,-252
1880,-147,4059,-231
1881,24,4101,-231
1882,24,4101,-168
1883,198,4239,-168
1884,183,4239,-201
1885,183,4239,-252
1886,174,4188,-252
1887,174,4188,-153
1888,120,4113,-153
1889,120,4113,-201
1890,120,4020,-183
1891,36,4041,-183
1892,-12,4041,-216
1893,-12,4017,-216
1894,-81,4017,-126
1895,-81,4017,-138
1896,-117,3975,-138
1897,-111,3975,-57
1898,-111,4053,-57
1899,-66,4053,-111
1900,-66,4107,24
1901,-15,4131,24
1902,-51,4131,-27
1903,-51,4119,-111
1904,-27,4119,-111
1905,-27,4095,-138
1906,6,4089,-138
1907,3,4089,-141
1908,3,4116,-126
1909,0,4116,-126
1910,0,4110,-81
1911,60,4113,-81
1912,39,4113,-93
1913,39,4101,-57
1914,15,4101,-57
1915,15,4062,-63
1916,51,4044,-63
1917,141,4044,-78
1918,141,4113,-102
1919,156,4113,-102
1920,156,4083,-78
1921,144,4113,-78
1922,108,4113,-111
1923,108,4095,-93
1924,93,4098,-93
1925,93,4098,-132
1926,105,4065,-132
1927,126,4065,-111
1928,126,4056,-66
1929,123,4119,-66
1930,123,4119,-102
1931,111,4161,-102
1932,108,4161,-48
1933,108,4131,-81
1934,108,4116,-81
1935,108,4116,-141
1936,24,4056,-141
1937,-45,4056,-141
1938,-45,4059,-147
1939,-57,4050,-147
1940,-57,4050,-177
1941,42,4134,-177
1942,21,4134,-186
1943,21,4122,-81
1944,51,4173,-81
1945,-6,4173,-72
1946,-6,4116,-72
1947,-9,4116,-108
1948,-9,4107,-81
1949,-18,4107,-81
1950,-24,4107,-66
1951,-24,4152,-66
1952,15,4152,-117
1953,15,4158,-102
1954,114,4146,-102
1955,147,4146,-6
1956,147,4164,-6
1957,243,4164,-27
1958,243,4218,30
1959,294,4275,30
1960,192,4275,39
1961,192,4257,-42
1962,111,4257,-42
1963,111,4302,-117
1964,-18,4203,-117
1965,33,4203,-63
1966,33,4236,0
1967,201,4236,0
1968,201,4245,3
1969,180,4182,3
1970,90,4182,-42
1971,90,4086,3
1972,27,4086,3
1973,27,4038,-12
1974,36,3999,-12
1975,144,3999,24
1976,144,4011,-36
1977,153,4011,-36
1978,153,3987,-33
1979,45,4002,-33
1980,90,4002,-81
1981,90,4005,-81
1982,174,4005,-81
1983,174,3948,-156
1984,144,3948,-156
1985,90,3948,-297
1986,90,3948,-348
1987,21,3948,-348
1988,21,3903,-357
1989,9,3981,-357
1990,63,3981,-387
1991,63,4053,-402
1992,114,4053,-402
1993,114,3999,-453
1994,102,3993,-453
1995,126,3993,-504
1996,126,3951,-423
1997,231,3915,-423
1998,231,3915,-432
1999,207,3909,-432
2000,222,3909,-417
2001,222,3912,-369
2002,240,3981,-369
2003,240,3981,-261
2004,339,4053,-261
2005,333,4053,-156
2006,333,4092,-261
2007,315,4074,-261
2008,315,4074,-162
2009,282,4089,-162
2010,351,4089,-141
2011,351,4098,-192
2012,414,4158,-192
2013,414,4158,-156
2014,543,4272,-156
2015,729,4272,-117
2016,729,4275,-63
2017,696,4194,-63
2018,696,4194,-222
2019,537,4098,-222
2020,93,4098,-237
2021,93,3933,-237
2022,-300,3840,-237
2023,-471,3840,-198
2024,-471,3864,-198
2025,-390,3864,-87
2026,-390,3966,15
2027,-222,4092,15
2028,-117,4092,18
2029,-117,4179,18
2030,60,4179,105
2031,60,4272,54
2032,156,4317,54
2033,147,4317,15
2034,147,4245,15
2035,63,4245,24
2036,63,4134,-87
2037,-57,4083,-87
2038,-12,4083,-138
2039,-12,4119,-138
2040,6,4119,-138
2041,6,4161,-192
2042,39,4197,-192
2043,57,4197,-132
2044,57,4158,-228
2045,-15,4158,-228
2046,-15,4179,-138
2047,-15,4176,-138
2048,-15,4176,-156
2049,-15,4152,-183
2050,-51,4152,-183
2051,-51,4146,-147
2052,-60,4134,-147
2053,-63,4134,-186
2054,-63,4140,-231
2055,-75,4140,-231
2056,-75,4107,-246
2057,-51,4083,-246
2058,-15,4083,-303
2059,-15,4023,-237
2060,24,4023,-237
2061,24,4023,-186
2062,-18,3996,-186
2063,-60,3996,-258
2064,-60,3975,-258
2065,-9,3978,-258
2066,-9,3978,-222
2067,75,4035,-222
2068,87,4035,-171
2069,87,4080,-198
2070,60,4092,-198
2071,60,4092,-177
2072,21,4134,-177
2073,108,4134,-213
2074,108,4176,-183
2075,138,4248,-183
2076,138,4248,-186
2077,129,4248,-186
2078,111,4248,-183
2079,111,4275,-87
2080,108,4302,-87
2081,108,4302,-141
2082,33,4275,-141
2083,24,4275,-147
2084,24,4209,-78
2085,57,4218,-78
2086,57,4218,-132
2087,90,4197,-132
2088,102,4197,-57
2089,102,4167,-123
2090,87,4137,-123
2091,87,4137,-141
2092,60,4089,-141
2093,69,4089,-147
2094,69,4071,-96
2095,69,4059,-96
2096,27,4059,-87
2097,27,4065,-87
2098,-24,4065,-117
2099,-24,4056,-141
2100,-27,4068,-141
2101,27,4068,-156
2102,27,4089,-156
2103,33,4089,-81
2104,33,4125,-96
2105,15,4143,-96
2106,90,4143,-96
2107,90,4143,-96
2108,108,4143,-81
2109,108,4155,-198
2110,114,4155,-198
2111,105,4155,-186
2112,105,4146,-186
2113,123,4146,-141
2114,123,4143,-132
2115,120,4149,-132
2116,93,4149,-87
2117,93,4146,-87
2118,90,4146,-87
2119,90,4161,-87
2120,54,4113,-87
2121,36,4113,-111
2122,36,4119,-48
2123,33,4119,-48
2124,33,4041,-51
2125,-33,4011,-51
2126,-105,4011,-171
2127,-105,3963,-216
2128,-99,3963,-216
2129,-99,3993,-207
2130,-30,3975,-207
2131,78,3975,-222
2132,78,3987,-171
2133,54,3987,-171
2134,54,4008,-186
2135,60,3999,-186
2136,84,3999,-216
2137,84,4014,-222
2138,144,4014,-222
2139,144,4005,-198
2140,156,4017,-198
2141,180,4017,-186
2142,180,4041,-171
2143,195,4071,-171
2144,195,4071,-132
2145,261,4098,-132
2146,252,4098,-96
2147,252,4119,-198
2148,261,4053,-198
2149,261,4053,-141
2150,228,4131,-141
2151,234,4131,-162
2152,234,4110,-87
2153,315,4158,-87
2154,315,4158,-132
2155,354,4143,-132
2156,321,4143,-81
2157,321,4146,-93
2158,282,4122,-93
2159,282,4122,-51
2160,252,4131,-51
2161,231,4131,-6
2162,231,4107,-93
2163,183,4095,-93
2164,183,4095,-72
2165,240,4074,-72
2166,252,4074,-96
2167,252,4098,-63
2168,243,4119,-63
2169,231,4119,-117
2170,231,4140,-117
2171,192,4140,-48
2172,192,4104,-147
2173,225,4098,-147
2174,213,4098,-111
2175,213,4095,-111
2176,183,4095,-48
2177,183,4134,-132
2178,183,4095,-132
2179,183,4095,-111
2180,183,4074,-111
2181,132,4074,-33
2182,132,4110,-81
2183,153,4086,-81
2184,138,4086,-81
2185,138,4089,-48
2186,132,4089,-48
2187,132,4131,-36
2188,39,4113,-36
2189,123,4113,-42
2190,123,4062,-81
2191,78,4062,-81
2192,78,4074,-168
2193,126,4110,-168
2194,141,4110,-63
2195,141,4104,-141
2196,78,4104,-141
2197,78,4152,-93
2198,87,4113,-93
2199,129,4113,-57
2200,129,4089,-108
2201,138,4089,-108
2202,138,4137,-162
2203,120,4068,-162
2204,114,4068,-123
2205,114,4119,-162
2206,156,4119,-162
2207,156,4107,-96
2208,132,4065,-96
2209,174,4065,-126
2210,174,4113,-87
2211,183,4113,-87
2212,183,4107,-102
2213,174,4122,-102
2214,123,4122,-93
2215,123,4095,-117
2216,114,4086,-117
2217,114,4086,-111
2218,93,4152,-111
2219,84,4152,-51
2220,84,4095,-132
2221,126,4122,-132
2222,126,4122,-96
2223,141,4137,-96
2224,171,4137,-132
2225,171,4110,-96
2226,183,4095,-96
2227,183,4095,-93
2228,177,4110,-93
2229,141,4110,-72
2230,141,4050,-153
2231,114,4104,-153
2232,114,4104,-126
2233,159,4122,-126
2234,189,4122,-93
2235,189,4125,-66
2236,132,4107,-66
2237,159,4107,-96
2238,159,4086,-96
2239,162,4086,-162
2240,162,4110,-168
2241,138,4098,-168
2242,159,4098,-93
2243,159,4098,-93
2244,189,4098,-63
2245,189,4119,-78
2246,216,4110,-78
2247,165,4110,-96
2248,165,4107,-168
2249,177,4107,-168
2250,177,4071,-171
2251,156,4107,-171
2252,156,4107,-117
2253,156,4113,-132
2254,171,4113,-132
2255,171,4089,-168
2256,165,4116,-168
2257,141,4116,-138
2258,141,4098,-141
2259,153,4098,-141
2260,153,4098,-171
2261,126,4050,-171
2262,96,4050,-72
2263,96,4122,-183
2264,126,4122,-183
2265,126,4113,-102
2266,114,4095,-102
2267,156,4095,-153
2268,156,4059,-87
2269,111,4098,-87
2270,111,4098,-96
2271,93,4122,-96
2272,132,4122,-126
2273,132,4104,-87
2274,153,4116,-87
2275,153,4116,-87
2276,177,4107,-87
2277,153,4107,-117
2278,153,4074,-72
2279,165,4104,-72
2280,165,4104,-108
2281,210,4071,-108
2282,156,4071,-147
2283,156,4089,-147
2284,183,4110,-147
2285,183,4110,-132
2286,144,4092,-132
2287,159,4092,-102
2288,159,4089,-141
2289,180,4092,-141
2290,180,4092,-183
2291,213,4098,-183
2292,153,4098,-177
2293,153,4101,-198
2294,165,4086,-198
2295,180,4086,-222
2296,180,4086,-222
2297,162,4086,-213
2298,162,4098,-147
2299,174,4074,-147
2300,174,4074,-168
2301,174,4107,-168
2302,174,4107,-78
2303,174,4098,-102
2304,213,4113,-102
2305,234,4113,-72
2306,234,4083,-72
2307,207,4083,-93
2308,207,4071,-72
2309,210,4101,-72
2310,210,4101,-111
2311,210,4125,-87
2312,111,4125,-87
2313,111,4137,-78
2314,147,4104,-78
2315,126,4104,-87
2316,126,4092,-42
2317,141,4092,-42
2318,141,4113,-96
2319,141,4083,-96
2320,96,4083,-126
2321,96,4080,-132
2322,78,4080,-132
2323,78,4089,-66
2324,96,4068,-66
2325,63,4068,-108
2326,63,4062,-111
2327,93,4062,-111
2328,93,4089,-186
2329,93,4071,-186
2330,36,4071,-141
2331,36,4074,-111
2332,108,4074,-111
2333,108,4086,-183
2334,96,4074,-183
2335,102,4074,-168
2336,102,4038,-138
2337,132,4038,-138
2338,132,4047,-147
2339,96,4080,-147
2340,120,4080,-117
2341,120,4074,-126
2342,162,4074,-126
2343,162,4059,-138
2344,177,4059,-138
2345,159,4059,-147
2346,159,4074,-117
2347,171,4074,-117
2348,171,4125,-183
2349,225,4059,-183
2350,162,4059,-216
2351,162,4110,-138
2352,171,4131,-138
2353,171,4131,-111
2354,249,4137,-111
2355,243,4137,-168
2356,243,4173,-78
2357,225,4140,-78
2358,225,4140,-132
2359,198,4158,-132
2360,156,4158,-108
2361,156,4122,-21
2362,210,4116,-21
2363,210,4116,-72
2364,180,4110,-72
2365,165,4110,-93
2366,165,4083,-96
2367,147,4095,-96
2368,147,4095,-57
2369,123,4089,-57
2370,87,4089,-48
2371,87,4080,-108
2372,105,4095,-108
2373,111,4095,-78
2374,111,4101,-78
2375,111,4101,-96
2376,111,4140,-102
2377,120,4104,-102
2378,108,4104,-156
2379,108,4095,-156
2380,105,4095,-87
2381,105,4092,-192
2382,96,4110,-192
2383,102,4110,-171
2384,102,4104,-153
2385,60,4104,-153
2386,60,4068,-243
2387,84,4056,-243
2388,72,4056,-168
2389,72,4071,-156
2390,111,4071,-156
2391,111,4065,-153
2392,132,4074,-153
2393,111,4074,-147
2394,111,4056,-243
2395,105,4056,-243
2396,105,4083,-138
2397,78,4092,-138
2398,120,4092,-201
2399,120,4086,-198
2400,132,4086,-198
2401,132,4116,-168
2402,162,4098,-168
2403,114,4098,-186
2404,114,4098,-132
2405,141,4098,-132
2406,141,4098,-198
2407,138,4089,-198
2408,183,4089,-153
2409,183,4116,-201
2410,153,4107,-201
2411,153,4107,-201
2412,192,4122,-201
2413,144,4122,-168
2414,144,4122,-117
2415,141,4137,-117
2416,141,4137,-147
2417,171,4152,-147
2418,171,4152,-162
2419,171,4119,-171
2420,201,4107,-171
2421,201,4107,-126
2422,108,4146,-126
2423,114,4146,-108
2424,114,4098,-138
2425,75,4134,-138
2426,75,4134,-138
2427,105,4095,-138
2428,108,4095,-117
2429,108,4116,-108
2430,102,4113,-108
2431,129,4113,-96
2432,129,4137,-96
2433,87,4137,-168
2434,87,4122,-138
2435,96,4110,-138
2436,132,4110,-237
2437,132,4104,-237
2438,123,4104,-156
2439,123,4110,-156
2440,90,4101,-156
2441,120,4101,-177
2442,120,4104,-162
2443,90,4104,-162
2444,90,4080,-171
2445,54,4071,-171
2446,105,4071,-207
2447,105,4083,-138
2448,144,4083,-138
2449,144,4116,-153
2450,78,4098,-153
2451,96,4098,-111
2452,96,4083,-231
2453,105,4083,-231
2454,105,4089,-153
2455,138,4101,-153
2456,147,4101,-168
2457,147,4095,-201
2458,141,4095,-201
2459,141,4095,-201
2460,120,4083,-201
2461,120,4083,-162
2462,120,4083,-201
2463,105,4083,-201
2464,105,4116,-246
2465,120,4101,-246
2466,93,4101,-138
2467,93,4125,-213
2468,132,4107,-213
2469,132,4107,-246
2470,153,4092,-246
2471,153,4092,-207
2472,153,4104,-147
2473,123,4074,-147
2474,123,4074,-141
2475,141,4134,-141
2476,129,4134,-177
2477,129,4113,-183
2478,129,4068,-183
2479,129,4068,-138
2480,108,4089,-138
2481,138,4089,-156
2482,138,4086,-156
2483,138,4095,-156
2484,138,4095,-207
2485,129,4089,-207
2486,156,4089,-153
2487,156,4089,-171
2488,129,4101,-171
2489,90,4101,-168
2490,90,4104,-168
2491,90,4104,-186
2492,90,4083,-153
2493,96,4071,-153
2494,144,4071,-168
2495,144,4113,-168
2496,96,4113,-168
2497,96,4068,-156
2498,105,4086,-156
2499,120,4086,-168
2500,120,4059,-168
2501,108,4059,-162
2502,108,4089,-201
2503,126,4104,-201
2504,129,4104,-177
2505,129,4101,-168
2506,96,4101,-168
2507,96,4101,-183
2508,162,4095,-183
2509,120,4095,-216
2510,120,4098,-201
2511,132,4098,-201
2512,132,4071,-168
2513,171,4104,-168
2514,153,4104,-258
2515,153,4095,-147
2516,156,4095,-147
2517,156,4092,-198
2518,120,4080,-198
2519,138,4080,-246
2520,138,4104,-228
2521,156,4104,-228
2522,156,4047,-183
2523,153,4071,-183
2524,51,4071,-183
2525,51,4119,-147
2526,201,4119,-147
2527,201,4131,-168
2528,198,4149,-168
2529,213,4149,-201
2530,213,4083,-207
2531,126,4113,-207
2532,126,4113,-237
2533,141,4104,-237
2534,60,4104,-177
2535,60,4107,-123
2536,102,4131,-123
2537,102,4131,-93
2538,138,4110,-93
2539,111,4110,-126
2540,111,4089,-132
2541,75,4065,-132
2542,75,4065,-138
2543,72,4095,-138
2544,96,4095,-117
2545,96,4137,-96
2546,93,4125,-96
2547,93,4125,-147
2548,120,4113,-147
2549,153,4113,-141
2550,153,4089,-213
2551,171,4119,-213
2552,147,4119,-108
2553,147,4098,-108
2554,45,4098,-246
2555,45,4173,-213
2556,120,4164,-213
2557,129,4164,-156
2558,129,4116,-156
2559,171,4116,-207
2560,171,4074,-186
2561,165,4056,-186
2562,162,4056,-213
2563,162,4056,-213
2564,177,4056,-252
2565,177,4086,-291
2566,144,4062,-291
2567,57,4062,-258
2568,57,4050,-258
2569,6,4050,-306
2570,6,4044,-282
2571,96,4107,-282
2572,147,4107,-273
2573,147,4134,-186
2574,138,4134,-186
2575,138,4104,-258
2576,126,4071,-258
2577,96,4071,-183
2578,96,4068,-168
2579,51,4068,-168
2580,51,4068,-177
2581,69,4065,-177
2582,114,4065,-201
2583,114,4119,-141
2584,123,4119,-141
2585,123,4134,-123
2586,129,4089,-123
2587,105,4089,-102
2588,105,4143,-102
2589,111,4143,-102
2590,111,4104,-147
2591,126,4053,-147
2592,132,4053,-81
2593,132,4116,-132
2594,102,4116,-132
2595,102,4140,-102
2596,126,4104,-102
2597,123,4104,-102
2598,123,4122,-171
2599,120,4122,-171
2600,120,4119,-177
2601,114,4176,-177
2602,126,4176,-156
2603,126,4191,-102
2604,165,4155,-102
2605,165,4155,-228
2606,165,4098,-228
2607,249,4098,-117
2608,249,3996,-222
2609,90,4044,-222
2610,90,4044,-258
2611,111,4098,-258
2612,87,4098,-216
2613,87,4092,-192
2614,213,4101,-192
2615,213,4101,-237
2616,201,4083,-237
2617,123,4083,-171
2618,123,4011,-198
2619,75,3972,-198
2620,75,3972,-237
2621,69,4020,-237
2622,96,4020,-198
2623,96,4146,-201
2624,132,4092,-201
2625,207,4092,-102
2626,207,4074,-102
2627,126,4074,-177
2628,126,4080,-171
2629,96,4056,-171
2630,54,4056,-177
2631,54,4113,-177
2632,87,4113,-156
2633,87,4080,-153
2634,75,4017,-153
2635,87,4017,-198
2636,87,4062,-198
2637,141,4062,-156
2638,141,4152,-186
2639,102,4164,-186
2640,147,4164,-177
2641,147,4200,-177
2642,171,4200,-147
2643,171,4113,-198
2644,141,4080,-198
2645,27,4080,-147
2646,27,4065,-177
2647,15,4065,-177
2648,15,4221,-51
2649,192,4248,-51
2650,213,4248,-141
2651,213,4197,-126
2652,54,4197,-126
2653,54,4020,-252
2654,-36,4017,-252
2655,45,4017,-348
2656,45,4056,-297
2657,210,4056,-297
2658,210,4314,-132
2659,51,4494,-132
2660,150,4494,63
2661,150,4365,-78
2662,90,4365,-78
2663,90,3939,-207
2664,-63,3681,-207
2665,27,3681,-333
2666,27,3762,-252
2667,72,3762,-252
2668,72,4209,-66
2669,318,4473,-66
2670,255,4473,120
2671,255,4101,-81
2672,36,3978,-81
2673,36,3978,-153
2674,141,3915,-153
2675,138,3915,-171
2676,138,4149,-63
2677,339,4254,-63
2678,339,4254,-42
2679,387,4086,-42
2680,279,4086,-81
2681,279,4104,0
2682,444,4215,0
2683,444,4215,93
2684,183,3981,93
2685,39,3981,-6
2686,39,3966,-42
2687,171,4032,-42
2688,171,4032,54
2689,306,4167,54
2690,423,4167,39
2691,423,4086,54
2692,441,4257,54
2693,441,4257,18
2694,282,4140,18
2695,282,4140,123
2696,282,4065,189
2697,147,4455,189
2698,147,4455,123
2699,63,3684,123
2700,372,3684,-108
2701,372,3858,-147
2702,321,3678,-147
2703,201,3678,-192
2704,201,4305,-192
2705,648,4305,183
2706,648,4569,339
2707,315,4317,339
2708,150,4317,228
2709,150,3603,228
2710,396,3603,-6
2711,396,4029,-21
2712,378,4113,-21
2713,321,4113,108
2714,321,4167,108
2715,270,4167,189
2716,270,4146,168
2717,198,4038,168
2718,354,4038,234
2719,354,4164,234
2720,351,4164,180
2721,351,4047,138
2722,255,4140,138
2723,330,4140,183
2724,330,4029,159
2725,324,4029,159
2726,324,4002,123
2727,216,4032,123
2728,363,4032,144
2729,363,4194,150
2730,399,4194,150
2731,399,4092,135
2732,300,4047,135
2733,243,4047,93
2734,243,4002,63
2735,357,4002,63
2736,357,4110,138
2737,324,4044,138
2738,333,4044,75
2739,333,4254,153
2740,330,4254,153
2741,330,4140,153
2742,363,4143,153
2743,330,4143,165
2744,330,3960,99
2745,285,3960,99
2746,285,4008,45
2747,249,4059,45
2748,246,4059,0
2749,246,4152,60
2750,285,4152,60
2751,285,4245,168
2752,165,3981,168
2753,285,3981,99
2754,285,4074,75
2755,306,4074,75
2756,306,3888,-87
2757,183,4395,-87
2758,486,4395,195
2759,486,4323,210
2760,525,4323,210
2761,525,4188,159
2762,213,4011,159
2763,237,4011,69
2764,237,3939,0
2765,306,3939,0
2766,306,3978,78
2767,351,4104,78
2768,285,4104,90
2769,285,4071,78
2770,267,3846,78
2771,267,3846,-12
2772,279,3747,-12
2773,105,3747,-66
2774,105,4074,114
2775,117,4410,114
2776,117,4410,303
2777,150,4365,303
2778,-48,4365,294
2779,-48,4407,345
2780,-72,4011,345
2781,-72,4011,129
2782,-27,3480,129
2783,141,3480,-117
2784,141,3642,-171
2785,144,3960,-171
2786,144,3960,-18
2787,42,4425,-18
2788,393,4425,330
2789,393,4386,285
2790,219,4155,285
2791,219,4155,189
2792,-45,4056,189
2793,93,4056,204
2794,93,4110,150
2795,351,4083,150
2796,345,4083,174
2797,345,4086,174
2798,336,4086,-6
2799,336,4023,-27
2800,261,4038,-27
2801,171,4038,-36
2802,171,3993,-36
2803,195,3993,-63
2804,195,4056,30
2805,243,4119,30
2806,162,4119,-18
2807,162,4188,-18
2808,42,4188,24
2809,42,4206,-66
2810,-42,4203,-66
2811,-27,4203,9
2812,-27,4179,39
2813,-60,4179,39
2814,-60,4146,-48
2815,-144,4080,-48
2816,-102,4080,-51
2817,-102,4134,24
2818,-45,4134,24
2819,-45,4134,9
2820,-60,4110,9
2821,-6,4110,24
2822,-6,4140,24
2823,12,4140,24
2824,12,4104,0
2825,108,4095,0
2826,93,4095,-27
2827,93,4092,0
2828,60,4092,0
2829,60,4074,-36
2830,3,4059,-36
2831,-81,4059,3
2832,-81,4080,15
2833,-132,4080,15
2834,-132,4026,-57
2835,-114,4080,-57
2836,3,4080,-72
2837,3,4137,-36
2838,129,4245,-36
2839,129,4245,-6
2840,102,4152,-6
2841,63,4152,15
2842,63,4164,18
2843,12,4164,18
2844,12,4164,-57
2845,-45,4125,-57
2846,15,4125,-81
2847,15,4029,-42
2848,-36,4086,-42
2849,-36,4086,-18
2850,-96,4158,-18
2851,6,4158,3
2852,6,4200,39
2853,96,4218,39
2854,96,4218,15
2855,159,4305,15
2856,99,4305,99
2857,99,4200,-18
2858,-63,4032,-18
2859,-63,4032,-108
2860,-117,4005,-108
2861,-45,4005,-93
2862,-45,4029,-93
2863,15,4095,-93
2864,15,4095,-108
2865,132,4134,-108
2866,132,4134,-42
2867,132,4212,-96
2868,57,4218,-96
2869,57,4218,-102
2870,-78,4179,-102
2871,-75,4179,-117
2872,-75,4107,-81
2873,-36,4065,-81
2874,-15,4065,-63
2875,-15,4086,-63
2876,-30,4086,3
2877,-30,4059,-51
2878,-27,4062,-51
2879,-24,4062,-12
2880,-24,4038,-12
2881,-138,4038,-12
2882,-138,3933,-6
2883,-225,4053,-6
2884,-219,4053,-126
2885,-219,4095,-126
2886,-183,4095,-171
2887,-183,4065,-96
2888,-147,4023,-96
2889,-162,4023,-51
2890,-162,4026,-147
2891,-147,4026,-147
2892,-147,4041,-117
2893,-234,4083,-117
2894,-168,4083,-78
2895,-168,4038,9
2896,-129,4038,9
2897,-129,4101,3
2898,3,4131,3
2899,-15,4131,9
2900,-15,4119,48
2901,0,4119,48
2902,0,4119,123
2903,-63,4119,123
2904,-15,4119,108
2905,-15,4140,75
2906,-48,4140,75
2907,-48,4137,129
2908,-24,4119,129
2909,69,4119,135
2910,69,4146,75
2911,90,4146,75
2912,90,4161,9
2913,96,4125,9
2914,111,4125,138
2915,111,4059,93
2916,57,4059,93
2917,57,4089,114
2918,48,4080,114
2919,-9,4080,90
2920,-9,3984,69
2921,-33,3984,69
2922,-33,3957,69
2923,42,4041,69
2924,-33,4041,183
2925,-33,4155,204
2926,-45,4188,204
2927,-45,4188,210
2928,-72,4098,210
2929,-252,4098,165
2930,-252,3999,105
2931,-318,4059,105
2932,-318,4059,90
2933,-270,4179,90
2934,-210,4179,213
2935,-210,4212,183
2936,-168,4149,183
2937,-168,4149,120
2938,-246,4086,120
2939,-306,4086,90
2940,-306,4086,99
2941,-351,4089,99
2942,-351,4089,105
2943,-339,4056,105
2944,-336,4056,165
2945,-336,4074,150
2946,-315,4086,150
2947,-315,4086,219
2948,-351,3996,219
2949,-354,3996,150
2950,-354,3930,249
2951,-324,4026,249
2952,-324,4026,270
2953,-255,4074,270
2954,-171,4074,279
2955,-171,4119,219
2956,-132,4068,219
2957,-132,4068,309
2958,-252,4074,309
2959,-270,4074,198
2960,-270,4092,204
2961,-267,4002,204
2962,-267,4002,204
2963,-177,4038,204
2964,-99,4038,210
2965,-99,4101,294
2966,-45,4140,294
2967,-117,4140,273
2968,-117,4131,273
2969,-81,4131,336
2970,-81,4068,258
2971,-84,4032,258
2972,-159,4032,273
2973,-159,4080,273
2974,-336,4080,315
2975,-336,3996,288
2976,-420,3972,288
2977,-309,3972,321
2978,-309,4032,321
2979,-180,4032,309
2980,-180,4101,354
2981,-114,4155,354
2982,-222,4155,399
2983,-222,4194,351
2984,-297,4194,351
2985,-297,4149,390
2986,-321,4068,390
2987,-336,4068,384
2988,-336,4092,471
2989,-360,4092,471
2990,-360,4191,429
2991,-249,4221,429
2992,-162,4221,459
2993,-162,4206,495
2994,-186,4206,495
2995,-186,4140,510
2996,-183,4095,510
2997,-231,4095,555
2998,-231,4050,534
2999,-240,4050,534
3000,-240,4089,570
3001,-297,4098,570
3002,-300,4098,606
3003,-300,4095,624
3004,-339,4095,624
3005,-339,4041,564
3006,-222,4011,564
3007,-186,4011,576
3008,-186,4029,480
3009,-144,4086,480
3010,-144,4086,579
3011,-132,4107,579
3012,-30,4107,516
3013,-30,4059,459
3014,-57,4035,459
3015,-57,4035,426
3016,-63,4029,426
3017,-63,4029,456
3018,-63,3987,414
3019,-12,3987,414
3020,-12,3987,444
3021,-51,3960,444
3022,-30,3960,459
3023,-30,3951,519
3024,27,3900,519
3025,27,3900,579
3026,-48,3906,579
3027,-57,3906,564
3028,-57,3933,645
3029,9,3918,645
3030,9,3918,594
3031,57,3957,594
3032,75,3957,561
3033,75,3936,636
3034,75,3912,636
3035,75,3912,615
3036,21,3945,615
3037,-48,3945,624
3038,-48,3963,570
3039,-96,4038,570
3040,-96,4038,555
3041,-114,4044,555
3042,-153,4044,570
3043,-153,4179,531
3044,-228,4407,531
3045,-273,4407,450
3046,-273,4584,450
3047,-267,4584,555
3048,-267,4518,501
3049,-309,4311,501
3050,-387,4311,471
3051,-387,4026,471
3052,-300,4026,435
3053,-300,3831,414
3054,-210,3747,414
3055,-201,3747,381
3056,-201,3828,381
3057,-153,3828,345
3058,-153,3891,396
3059,-153,3984,396
3060,-111,3984,336
3061,-111,4041,258
3062,-219,4041,258
3063,-219,4152,84
3064,-396,4242,84
3065,-462,4242,-48
3066,-462,4209,-108
3067,-387,4209,-108
3068,-387,4143,-132
3069,-285,4026,-132
3070,-390,4026,-126
3071,-390,3993,-63
3072,-405,3993,-63
3073,-405,3999,-93
3074,-375,4041,-93
3075,-339,4041,54
3076,-339,4065,90
3077,-366,4065,90
3078,-366,4104,63
3079,-480,4134,63
3080,-684,4134,99
3081,-684,4131,30
3082,-798,4131,30
3083,-798,4026,24
3084,-837,3957,24
3085,-759,3957,-27
3086,-759,3933,-102
3087,-672,3933,-102
3088,-672,3957,-78
3089,-585,4017,-78
3090,-426,4017,3
3091,-426,4047,-12
3092,-387,4047,-12
3093,-387,4137,18
3094,-444,4167,18
3095,-351,4167,63
3096,-351,4116,138
3097,-264,4116,138
3098,-264,4101,153
3099,-246,4086,153
3100,-342,4086,219
3101,-342,4113,213
3102,-438,4113,213
3103,-438,4125,249
3104,-360,4065,249
3105,-321,4065,219
3106,-321,4047,189
3107,-339,4047,189
3108,-339,4041,159
3109,-348,3999,159
3110,-354,3999,129
3111,-354,4002,9
3112,-351,4002,9
3113,-351,4047,48
3114,-306,4101,48
3115,-234,4101,-18
3116,-234,4092,9
3117,-249,4101,9
3118,-249,4101,48
3119,-288,4158,48
3120,-201,4158,123
3121,-201,4140,45
3122,-165,4170,45
3123,-165,4170,108
3124,-177,4146,108
3125,-180,4146,123
3126,-180,4149,60
3127,-216,4101,60
3128,-216,4101,78
3129,-183,4038,78
3130,-201,4038,159
3131,-201,4050,120
3132,-240,4125,120
3133,-240,4125,225
3134,-318,4107,225
3135,-429,4107,189
3136,-429,4155,228
3137,-402,4182,228
3138,-402,4182,204
3139,-420,4170,204
3140,-531,4170,234
3141,-531,4191,153
3142,-612,4158,153
3143,-612,4158,189
3144,-696,4167,189
3145,-681,4167,129
3146,-681,4182,138
3147,-648,4113,138
3148,-648,4113,39
3149,-624,4068,39
3150,-627,4068,18
3151,-627,4023,-33
3152,-594,4074,-33
3153,-594,4074,-36
3154,-567,4083,-36
3155,-534,4083,-87
3156,-534,4089,-57
3157,-483,4062,-57
3158,-438,4062,30
3159,-438,4134,30
3160,-372,4134,78
3161,-372,4203,69
3162,-327,4176,69
3163,-339,4176,9
3164,-339,4107,9
3165,-387,4107,69
3166,-387,4065,-27
3167,-450,3981,-27
3168,-540,3981,-108
3169,-540,4056,-108
3170,-516,4056,-6
3171,-516,4041,-153
3172,-393,3966,-153
3173,-363,3966,-201
3174,-363,3957,-201
3175,-411,3957,-276
3176,-411,3876,-327
3177,-360,3921,-327
3178,-303,3921,-258
3179,-303,3900,-258
3180,-309,3900,-252
3181,-309,4041,-186
3182,-363,4101,-186
3183,-528,4101,-201
3184,-528,4110,-318
3185,-615,4110,-318
3186,-615,4032,-333
3187,-597,4047,-333
3188,-534,4047,-321
3189,-534,4107,-327
3190,-462,4107,-327
3191,-462,4125,-321
3192,-429,4110,-321
3193,-345,4110,-342
3194,-345,4038,-393
3195,-372,4038,-393
3196,-372,3921,-348
3197,-432,3909,-348
3198,-528,3909,-291
3199,-528,4044,-363
3200,-507,4044,-363
3201,-507,4143,-243
3202,-447,4155,-243
3203,-420,4155,-291
3204,-420,4101,-282
3205,-420,4101,-282
3206,-420,4152,-258
3207,-429,4254,-258
3208,-447,4254,-201
3209,-447,4296,-222
3210,-444,4296,-222
3211,-444,4338,-198
3212,-396,4395,-198
3213,-363,4395,-252
3214,-363,4365,-201
3215,-426,4308,-201
3216,-426,4308,-171
3217,-438,4245,-171
3218,-459,4245,-171
3219,-459,4290,-222
3220,-360,4272,-222
3221,-360,4272,-171
3222,-321,4287,-171
3223,-309,4287,-258
3224,-309,4305,-243
3225,-312,4389,-243
3226,-312,4389,-237
3227,-252,4353,-237
3228,-342,4353,-318
3229,-342,4323,-291
3230,-306,4284,-291
3231,-306,4284,-327
3232,-327,4389,-327
3233,-300,4389,-327
3234,-300,4335,-198
3235,-438,4371,-198
3236,-582,4371,-276
3237,-582,4599,-276
3238,-660,4599,-168
3239,-660,4752,-156
3240,-600,4755,-156
3241,-531,4755,-123
3242,-531,4602,-123
3243,-405,4602,-102
3244,-405,4356,-141
3245,-288,3924,-141
3246,-336,3924,24
3247,-336,3777,24
3248,-489,3777,198
3249,-489,3873,300
3250,-678,4008,300
3251,-666,4008,309
3252,-666,3933,309
3253,-591,3933,384
3254,-591,3828,336
3255,-549,3789,336
3256,-606,3789,339
3257,-606,3843,339
3258,-567,3843,339
3259,-567,3837,345
3260,-543,3945,345
3261,-456,3945,288
3262,-456,3912,288
3263,-258,3912,384
3264,-258,3837,471
3265,-270,3786,471
3266,-384,3786,591
3267,-384,3864,591
3268,-495,3864,747
3269,-495,3858,771
3270,-597,3930,771
3271,-735,3930,870
3272,-735,3885,921
3273,-804,3885,921
3274,-804,3900,987
3275,-807,3921,987
3276,-804,3921,936
3277,-804,3930,996
3278,-783,3930,996
3279,-783,3825,951
3280,-705,3795,951
3281,-774,3795,1032
3282,-774,3849,1116
3283,-858,3849,1116
3284,-858,3990,1086
3285,-786,3975,1086
3286,-684,3975,1017
3287,-684,3975,945
3288,-693,3975,945
3289,-693,4002,951
3290,-780,4068,951
3291,-837,4068,852
3292,-837,4107,816
3293,-753,4116,816
3294,-753,4116,861
3295,-750,4113,861
3296,-756,4113,792
3297,-756,4059,771
3298,-789,4137,771
3299,-789,4137,765
3300,-750,4005,765
3301,-699,4005,756
3302,-699,3882,726
3303,-636,3828,726
3304,-636,3828,657
3305,-615,3735,657
3306,-546,3735,624
3307,-546,3654,636
3308,-561,3627,636
3309,-561,3627,591
3310,-558,3705,591
3311,-504,3705,591
3312,-504,3669,486
3313,-456,3750,486
3314,-456,3750,489
3315,-444,3711,489
3316,-447,3711,456
3317,-447,3747,405
3318,-435,3783,405
3319,-435,3783,390
3320,-402,3879,390
3321,-417,3879,381
3322,-417,3957,405
3323,-492,3981,405
3324,-492,3981,390
3325,-492,4008,390
3326,-402,4008,315
3327,-402,4032,321
3328,-285,4092,321
3329,-240,4092,411
3330,-240,4158,411
3331,-267,4158,459
3332,-267,4101,549
3333,-336,4065,549
3334,-351,4065,642
3335,-351,4050,642
3336,-405,4050,717
3337,-405,4119,855
3338,-474,4056,855
3339,-636,4056,885
3340,-636,4041,891
3341,-702,4041,891
3342,-702,4074,921
3343,-720,4149,921
3344,-669,4149,885
3345,-669,4191,831
3346,-720,4191,831
3347,-720,4164,822
3348,-807,4119,822
3349,-792,4119,702
3350,-792,4140,675
3351,-762,4140,675
3352,-762,4089,579
3353,-762,4032,579
3354,-792,4032,531
3355,-792,3927,516
3356,-831,3927,516
3357,-831,3915,534
3358,-822,3897,534
3359,-825,3897,486
3360,-825,3912,456
3361,-774,3912,456
3362,-774,3909,459
3363,-765,3924,459
3364,-723,3924,474
3365,-723,3894,435
3366,-717,3894,435
3367,-717,3987,420
3368,-729,3960,420
3369,-645,3960,414
3370,-645,3960,429
3371,-666,3936,429
3372,-666,3936,420
3373,-609,3990,420
3374,-564,3990,459
3375,-564,3939,504
3376,-651,3936,504
3377,-651,3936,531
3378,-627,3864,531
3379,-531,3864,519
3380,-531,3879,561
3381,-555,3963,561
3382,-555,3963,549
3383,-537,3993,549
3384,-594,3993,555
3385,-594,3966,549
3386,-597,3978,549
3387,-597,3978,525
3388,-537,4053,525
3389,-516,4053,519
3390,-516,4062,471
3391,-492,4050,471
3392,-510,4050,549
3393,-510,4011,549
3394,-498,4011,489
3395,-498,3975,570
3396,-477,4068,570
3397,-522,4068,615
3398,-522,4050,615
3399,-516,4050,636
3400,-516,3999,615
3401,-546,4029,615
3402,-477,4029,615
3403,-477,4032,615
3404,-486,4032,630
3405,-486,4032,621
3406,-456,4023,621
3407,-465,4023,561
3408,-465,4029,561
3409,-477,4029,600
3410,-477,3987,534
3411,-426,4056,534
3412,-474,4056,489
3413,-474,4170,534
3414,-420,4170,534
3415,-420,4068,591
3416,-456,4038,591
3417,-474,4038,564
3418,-474,4059,561
3419,-537,4059,561
3420,-537,4065,576
3421,-561,4089,576
3422,-489,4089,594
3423,-489,4044,534
3424,-528,4044,534
3425,-528,3957,549
3426,-567,3987,549
3427,-579,3987,495
3428,-579,4080,516
3429,-591,4080,516
3430,-591,4041,531
3431,-597,3996,531
3432,-606,3996,510
3433,-606,3987,495
3434,-624,3987,495
3435,-624,4008,486
3436,-576,4023,486
3437,-546,4023,534
3438,-546,4053,525
3439,-555,4053,525
3440,-555,3990,501
3441,-555,4011,501
3442,-543,4011,540
3443,-543,4011,561
3444,-522,4029,561
3445,-522,4029,510
3446,-486,4026,510
3447,-489,4026,549
3448,-489,3996,486
3449,-537,3996,486
3450,-537,3996,495
3451,-444,4032,495
3452,-423,4032,585
3453,-423,4038,474
3454,-429,4029,474
3455,-429,4029,450
3456,-486,4044,450
3457,-474,4044,465
3458,-474,4053,429
3459,-408,4059,429
3460,-408,4059,441
3461,-384,3987,441
3462,-429,3987,429
3463,-429,3981,444
3464,-462,4005,444
3465,-462,4005,546
3466,-492,4017,546
3467,-498,4017,564
3468,-498,4029,585
3469,-465,4026,585
3470,-441,4026,501
3471,-441,4011,501
3472,-471,4011,570
3473,-471,4035,555
3474,-474,4134,555
3475,-465,4134,489
3476,-465,4143,489
3477,-492,4143,471
3478,-492,4089,444
3479,-597,3996,444
3480,-591,3996,426
3481,-591,4038,426
3482,-510,4038,420
3483,-510,4068,516
3484,-489,4062,516
3485,-522,4062,540
3486,-522,3996,540
3487,-612,3996,540
3488,-612,3936,495
3489,-600,3954,495
3490,-546,3954,585
3491,-546,4044,579
3492,-471,4044,579
3493,-471,4011,540
3494,-411,3987,540
3495,-402,3987,471
3496,-402,4011,435
3497,-357,4011,435
3498,-357,4014,390
3499,-351,4050,390
3500,-375,4050,456
3501,-375,3987,426
3502,-366,3987,426
3503,-366,3978,390
3504,-378,3981,390
3505,-348,3981,375
3506,-348,3954,375
3507,-252,3936,375
3508,-252,3936,354
3509,-240,3948,354
3510,-204,3948,405
3511,-204,3912,354
3512,-246,3954,354
3513,-246,3954,366
3514,-285,3963,366
3515,-273,3963,375
3516,-273,3975,375
3517,-222,3981,375
3518,-222,3981,351
3519,-189,4056,351
3520,-186,4056,396
3521,-186,4068,294
3522,-231,4041,294
3523,-231,4041,324
3524,-183,4002,324
3525,-162,4002,309
3526,-162,4056,339
3527,-219,4053,339
3528,-219,4053,360
3529,-279,4068,360
3530,-264,4068,390
3531,-264,4014,375
3532,-177,4074,375
3533,-129,4074,369
3534,-129,4077,369
3535,-126,4077,399
3536,-126,4116,309
3537,-177,4041,309
3538,-222,4041,360
3539,-222,4077,360
3540,-237,4077,345
3541,-237,4140,441
3542,-222,4164,441
3543,-219,4164,474
3544,-219,4167,474
3545,-228,4167,504
3546,-228,4128,465
3547,-246,4080,465
3548,-219,4080,345
3549,-219,4062,345
3550,-198,4062,396
3551,-198,4095,360
3552,-186,4194,360
3553,-180,4194,360
3554,-180,4158,336
3555,-189,4158,336
3556,-189,4128,330
3557,-198,4083,330
3558,-189,4083,279
3559,-189,4119,288
3560,-240,4119,288
3561,-240,4089,264
3562,-159,4059,264
3563,-147,4059,225
3564,-147,4074,240
3565,-99,4074,240
3566,-99,4092,240
3567,-228,4092,240
3568,-246,4092,234
3569,-246,4125,183
3570,-159,4125,183
3571,-159,4089,204
3572,-180,4056,204
3573,-180,4056,204
3574,-180,4092,219
3575,-141,4092,219
3576,-141,4155,270
3577,-180,4125,270
3578,-231,4125,315
3579,-231,4116,366
3580,-234,4113,366
3581,-234,4113,321
3582,-216,4167,321
3583,-150,4167,288
3584,-150,4215,324
3585,-162,4209,324
3586,-162,4209,303
3587,-144,4134,303
3588,-153,4134,264
3589,-153,4167,351
3590,-168,4194,351
3591,-168,4194,369
3592,-120,4200,369
3593,-96,4200,396
3594,-96,4164,330
3595,-132,4131,330
3596,-132,4131,375
3597,-177,4065,375
3598,-153,4065,336
3599,-153,4014,294
3600,-99,4053,294
3601,-99,4053,288
3602,-147,4116,288
3603,-153,4116,264
3604,-153,4092,219
3605,-144,4059,219
3606,-144,4059,210
3607,-39,4017,210
3608,9,4017,204
3609,9,4083,225
3610,-81,4092,225
3611,-108,4092,150
3612,-108,4065,150
3613,-57,4065,204
3614,-57,4026,150
3615,-63,4080,150
3616,-114,4080,150
3617,-114,4092,150
3618,-147,4092,150
3619,-147,4128,99
3620,-141,4080,99
3621,-114,4080,114
3622,-114,4014,114
3623,-186,4014,15
3624,-186,4026,84
3625,-198,4047,84
3626,-210,4047,114
3627,-210,4032,99
3628,-162,4032,99
3629,-162,3996,204
3630,-162,4011,204
3631,-162,4011,270
3632,-162,4047,249
3633,-231,4047,249
3634,-231,4083,288
3635,-198,4035,288
3636,-147,4035,264
3637,-147,4068,336
3638,-135,4068,336
3639,-135,4065,303
3640,-183,4146,303
3641,-201,4146,399
3642,-201,4134,354
3643,-132,4134,354
3644,-132,4107,390
3645,-81,4134,390
3646,-72,4134,345
3647,-72,4179,339
3648,-90,4158,339
3649,-90,4158,279
3650,-111,4131,279
3651,-84,4131,336
3652,-84,4110,210
3653,-48,4131,210
3654,-48,4131,240
3655,-81,4089,240
3656,-171,4089,264
3657,-171,4110,240
3658,-219,4095,240
3659,-219,4095,189
3660,-141,4083,189
3661,-132,4083,228
3662,-132,4134,249
3663,-60,4125,249
3664,-60,4125,198
3665,-39,4008,198
3666,-60,4008,189
3667,-60,4044,189
3668,-135,4017,189
3669,-135,4017,213
3670,-111,4128,213
3671,-57,4128,240
3672,-57,4077,219
3673,-30,4128,219
3674,-72,4128,219
3675,-72,4116,219
3676,-93,4116,180
3677,-93,4107,159
3678,-72,4107,159
3679,6,4107,210
3680,6,4104,210
3681,9,4104,198
3682,9,4104,240
3683,-42,4143,240
3684,-102,4143,228
3685,-102,4137,228
3686,-75,4137,240
3687,-75,4068,270
3688,-93,4080,270
3689,-114,4080,315
3690,-114,4080,315
3691,-108,4080,204
3692,-108,4134,273
3693,-33,4134,273
3694,-129,4134,243
3695,-129,4098,240
3696,-183,4098,240
3697,-183,4074,168
3698,-171,4053,168
3699,-117,4053,195
3700,-117,4110,189
3701,-135,4110,189
3702,-135,4134,255
3703,-132,4083,255
3704,-210,4083,195
3705,-210,4074,240
3706,-177,4074,240
3707,-177,4074,189
3708,-168,4053,189
3709,-159,4053,243
3710,-159,4050,240
3711,-153,4050,240
3712,-153,4101,219
3713,-165,4101,219
3714,-165,4101,324
3715,-165,4077,330
3716,-222,4104,330
3717,-222,4104,321
3718,-228,4128,321
3719,-216,4128,255
3720,-216,4131,285
3721,-183,4116,285
3722,-183,4116,324
3723,-171,4134,324
3724,-228,4134,279
3725,-228,4140,300
3726,-240,4119,300
3727,-240,4119,351
3728,-255,4137,351
3729,-291,4137,315
3730,-291,4086,255
3731,-342,4068,255
3732,-342,4068,279
3733,-339,4092,279
3734,-213,4092,234
3735,-213,4089,258
3736,-141,4080,258
3737,-141,4080,240
3738,-219,4083,240
3739,-246,4083,258
3740,-246,4080,189
3741,-246,4080,189
3742,-210,4080,183
3743,-210,4059,183
3744,-198,4059,225
3745,-198,4074,180
3746,-159,4065,180
3747,-186,4065,219
3748,-186,4047,219
3749,-231,4047,303
3750,-231,4053,258
3751,-198,4065,258
3752,-150,4065,219
3753,-150,4065,219
3754,-165,4065,273
3755,-165,4056,264
3756,-195,4062,264
3757,-249,4062,249
3758,-249,4080,249
3759,-219,4080,249
3760,-219,4065,315
3761,-129,4104,315
3762,-153,4104,294
3763,-153,4116,339
3764,-147,4116,339
3765,-147,4080,330
3766,-231,4059,330
3767,-204,4059,375
3768,-204,4035,336
3769,-159,4035,336
3770,-159,4110,360
3771,-135,4107,360
3772,-165,4107,369
3773,-165,4089,420
3774,-228,4089,420
3775,-228,4059,336
3776,-195,4053,336
3777,-147,4053,354
3778,-147,4050,339
3779,-126,4050,339
3780,-126,4092,360
3781,-168,4053,360
3782,-216,4053,288
3783,-216,4038,273
3784,-168,4062,273
3785,-168,4062,303
3786,-153,4065,303
3787,-165,4065,324
3788,-165,4080,258
3789,-129,4047,258
3790,-129,4047,270
3791,-159,4062,270
3792,-99,4062,324
3793,-99,4041,303
3794,-153,4083,303
3795,-153,4083,294
3796,-135,4077,294
3797,-159,4077,324
3798,-159,4065,303
3799,-180,4074,303
3800,-180,4074,351
3801,-150,4104,351
3802,-99,4104,336
3803,-99,4137,300
3804,-135,4065,300
3805,-135,4065,255
3806,-153,4056,255
3807,-168,4056,285
3808,-168,4062,324
3809,-153,4089,324
3810,-153,4089,369
3811,-126,4161,369
3812,-147,4161,294
3813,-147,4158,336
3814,-144,4128,336
3815,-120,4128,321
3816,-120,4095,321
3817,-132,4095,330
3818,-132,4095,300
3819,-132,4107,300
3820,-135,4107,345
3821,-135,4077,345
3822,-183,4077,369
3823,-183,4107,405
3824,-186,4059,405
3825,-186,4059,360
3826,-186,4083,360
3827,-177,4083,360
3828,-177,4026,315
3829,-120,4074,315
3830,-144,4074,351
3831,-144,4047,351
3832,-171,4047,303
3833,-171,4080,351
3834,-144,4065,351
3835,-120,4065,294
3836,-120,4092,324
3837,-135,4092,324
3838,-135,4083,213
3839,-90,4077,213
3840,-51,4077,234
3841,-51,4056,213
3842,-99,4056,213
3843,-99,3996,210
3844,-150,4062,210
3845,-186,4062,264
3846,-186,4068,240
3847,-144,4068,240
3848,-144,4038,219
3849,-171,4053,219
3850,-195,4053,273
3851,-195,4041,204
3852,-165,4041,204
3853,-165,4062,174
3854,-153,4068,174
3855,-165,4068,294
3856,-165,4080,279
3857,-213,4080,279
3858,-213,4086,330
3859,-201,4125,330
3860,-219,4125,315
3861,-219,4128,324
3862,-210,4110,324
3863,-210,4110,366
3864,-246,4125,366
3865,-204,4125,381
3866,-204,4146,435
3867,-204,4137,435
3868,-204,4137,381
3869,-267,4140,381
3870,-213,4140,324
3871,-213,4137,345
3872,-213,4026,345
3873,-213,4026,336
3874,-231,4053,336
3875,-270,4053,294
3876,-270,4104,336
3877,-249,4080,336
3878,-249,4080,309
3879,-213,4056,309
3880,-258,4056,315
3881,-258,4038,249
3882,-252,4089,249
3883,-252,4089,204
3884,-186,4059,204
3885,-165,4059,294
3886,-165,4068,270
3887,-180,4035,270
3888,-189,4035,294
3889,-189,4050,294
3890,-189,4050,165
3891,-189,4086,240
3892,-177,4023,240
3893,-135,4023,210
3894,-135,4077,210
3895,-147,4077,234
3896,-147,4074,240
3897,-186,4077,240
3898,-210,4077,249
3899,-210,4053,249
3900,-111,4053,303
3901,-111,4023,285
3902,-99,4029,285
3903,-150,4029,279
3904,-150,4098,273
3905,-132,4098,273
3906,-132,4110,303
3907,-81,4104,303
3908,-93,4104,285
3909,-93,4062,309
3910,-144,4062,309
3911,-144,4083,351
3912,-126,4098,351
3913,-126,4098,360
3914,-126,4092,339
3915,-213,4092,339
3916,-213,4107,255
3917,-213,4110,255
3918,-102,4110,195
3919,-102,4161,285
3920,-90,4161,285
3921,-90,4194,273
3922,-162,4191,273
3923,-249,4191,225
3924,-249,4056,309
3925,-240,4056,309
3926,-240,4077,294
3927,-213,4113,294
3928,-180,4113,330
3929,-180,4101,303
3930,-240,4101,303
3931,-240,4086,339
3932,-327,4104,339
3933,-240,4104,396
3934,-240,4098,381
3935,-177,4107,381
3936,-177,4107,381
3937,-240,4083,381
3938,-222,4083,351
3939,-222,4005,339
3940,-162,4092,339
3941,-162,4092,243
3942,-141,4101,243
3943,-126,4101,249
3944,-126,4143,273
3945,-195,4164,273
3946,-195,4164,234
3947,-240,4056,234
3948,-204,4056,183
3949,-204,3990,150
3950,-189,4035,150
3951,-189,4035,228
3952,-165,4047,228
3953,-141,4047,288
3954,-141,4032,336
3955,-204,4011,336
3956,-204,4011,429
3957,-285,3966,429
3958,-321,3966,420
3959,-321,3984,369
3960,-279,4050,369
3961,-201,4050,330
3962,-201,4029,330
3963,-165,4029,321
3964,-165,4065,279
3965,-162,4011,279
3966,-216,4011,279
3967,-216,4047,279
3968,-135,4047,300
3969,-135,4080,288
3970,-90,4056,288
3971,-60,4056,210
3972,-60,4059,210
3973,-42,4059,213
3974,-42,4047,219
3975,-78,4041,219
3976,-66,4041,204
3977,-66,4077,183
3978,-42,4077,183
3979,-42,4068,255
3980,-84,4086,255
3981,-102,4086,354
3982,-102,4098,369
3983,-60,4098,369
3984,-60,4110,354
3985,6,4080,354
3986,21,4080,339
3987,21,4098,369
3988,-6,4098,369
3989,-6,4098,381
3990,-6,4089,381
3991,-27,4089,339
3992,-27,4113,396
3993,-15,4113,396
3994,-15,4128,390
3995,-39,4140,390
3996,-84,4140,405
3997,-84,4095,381
3998,-93,4092,381
3999,-93,4092,330
4000,-114,4092,330
4001,-129,4092,354
4002,-129,4068,294
4003,-135,4086,294
4004,-135,4086,351
4005,-126,4074,351
4006,-135,4074,315
4007,-135,4065,228
4008,-165,4041,228
4009,-165,4041,264
4010,-219,4032,264
4011,-213,4032,360
4012,-213,4086,366
4013,-195,4077,366
4014,-195,4077,288
4015,-216,4053,288
4016,-231,4053,270
4017,-231,4038,249
4018,-198,4074,249
4019,-198,4074,258
4020,-228,4074,258
4021,-273,4074,255
4022,-273,4044,270
4023,-264,4032,270
4024,-264,4032,195
4025,-228,4053,195
4026,-240,4053,258
4027,-240,4065,294
4028,-297,4056,294
4029,-222,4056,249
4030,-222,4110,249
4031,-165,4110,294
4032,-165,4056,243
4033,-162,4065,243
4034,-147,4065,213
4035,-147,4047,213
4036,-159,4047,330
4037,-159,4035,366
4038,-171,3999,366
4039,-150,3999,351
4040,-150,4035,351
4041,-120,4035,285
4042,-120,4065,321
4043,-147,4044,321
4044,-186,4044,339
4045,-186,4074,339
4046,-180,4074,321
4047,-180,4038,369
4048,-102,4113,369
4049,-165,4113,324
4050,-165,4083,354
4051,-171,4083,354
4052,-171,4077,303
4053,-183,4083,303
4054,-189,4083,309
4055,-189,4104,321
4056,-168,4104,321
4057,-168,4095,345
4058,-117,4125,345
4059,-81,4125,243
4060,-81,4110,249
4061,-12,4110,249
4062,-12,4092,273
4063,-48,4134,273
4064,-81,4134,303
4065,-81,4098,294
4066,-132,4098,294
4067,-132,4092,294
4068,-114,4101,294
4069,-108,4101,324
4070,-108,4125,339
4071,-129,4125,339
4072,-129,4092,273
4073,-120,4104,273
4074,-81,4104,240
4075,-81,4074,279
4076,-117,4074,279
4077,-117,4110,309
4078,-90,4089,309
4079,-93,4089,255
4080,-93,4101,225
4081,-72,4104,225
4082,-72,4104,285
4083,-117,4110,285
4084,-141,4110,264
4085,-141,4101,288
4086,-135,4107,288
4087,-135,4107,288
4088,-141,4098,288
4089,-117,4098,273
4090,-117,4086,240
4091,-111,4128,240
4092,-111,4128,204
4093,-96,4143,204
4094,-93,4143,264
4095,-93,4104,351
4096,-165,4104,351
4097,-165,4104,285
4098,-222,4113,285
4099,-195,4113,300
4100,-195,4134,279
4101,-108,4161,279
4102,-108,4161,321
4103,-78,4149,321
4104,-144,4149,390
4105,-144,4146,429
4106,-183,4065,429
4107,-183,4065,414
4108,-147,4032,414
4109,-162,4032,288
4110,-162,4035,300
4111,-168,4026,300
4112,-159,4026,234
4113,-159,4029,234
4114,-180,4029,249
4115,-180,4035,273
4116,-195,4041,273
4117,-228,4041,213
4118,-228,4050,213
4119,-180,4050,180
4120,-180,4083,195
4121,-177,4056,195
4122,-186,4056,204
4123,-186,4038,204
4124,-255,4038,198
4125,-255,4050,288
4126,-240,4038,288
4127,-180,4038,255
4128,-180,4026,255
4129,-150,4026,213
4130,-150,4047,285
4131,-165,4035,285
4132,-171,4035,258
4133,-171,4023,219
4134,-201,4023,219
4135,-201,4062,195
4136,-165,4089,195
4137,-153,4089,183
4138,-153,4101,165
4139,-144,4101,165
4140,-144,4080,195
4141,-162,4053,195
4142,-150,4053,195
4143,-150,4092,219
4144,-93,4092,219
4145,-93,4137,243
4146,12,4119,243
4147,-27,4119,285
4148,-27,4077,288
4149,-84,4077,288
4150,-84,4095,279
4151,-102,4155,279
4152,-75,4155,360
4153,-75,4200,330
4154,-114,4200,330
4155,-114,4134,273
4156,-129,4113,273
4157,-150,4113,321
4158,-150,4101,285
4159,-150,4101,285
4160,-150,4125,240
4161,-126,4140,240
4162,-114,4140,270
4163,-114,4146,264
4164,-108,4134,264
4165,-108,4134,273
4166,-144,4104,273
4167,-180,4104,273
4168,-180,4053,255
4169,-177,4062,255
4170,-177,4062,270
4171,-180,4092,270
4172,-159,4092,213
4173,-159,4116,180
4174,-159,4047,180
4175,-159,4047,183
4176,-153,4047,183
4177,-108,4047,150
4178,-108,4047,138
4179,-96,4053,138
4180,-96,4053,195
4181,-135,4092,195
4182,-144,4092,204
4183,-144,4023,174
4184,-177,4044,174
4185,-177,4044,165
4186,-171,4080,165
4187,-129,4080,204
4188,-129,4098,234
4189,-24,4083,234
4190,-24,4083,210
4191,-30,4131,210
4192,-42,4131,189
4193,-42,4089,165
4194,-51,4086,165
4195,-12,4086,183
4196,-12,4113,183
4197,-24,4113,240
4198,-24,4158,288
4199,-9,4146,288
4200,-81,4146,234
4201,-81,4119,234
4202,-114,4119,288
4203,-114,4044,303
4204,-108,4131,303
4205,-45,4131,309
4206,-45,4140,309
4207,-72,4140,300
4208,-72,4146,264
4209,-135,4038,264
4210,-135,4038,225
4211,-135,4068,228
4212,-129,4068,228
4213,-129,4098,183
4214,-150,4107,183
4215,-120,4107,228
4216,-120,4101,198
4217,-120,4101,198
4218,-120,4056,249
4219,-186,4053,249
4220,-183,4053,258
4221,-183,4035,183
4222,-213,4035,183
4223,-213,4086,213
4224,-219,4056,213
4225,-210,4056,228
4226,-210,4056,195
4227,-180,4056,195
4228,-180,4047,159
4229,-141,4053,159
4230,-99,4053,144
4231,-99,4050,165
4232,-186,4050,165
4233,-186,4116,198
4234,-210,4098,198
4235,-165,4098,240
4236,-165,4104,249
4237,-117,4089,249
4238,-117,4089,180
4239,-63,4101,180
4240,-72,4101,270
4241,-72,4092,294
4242,-114,4086,294
4243,-114,4086,273
4244,-126,4113,273
4245,-111,4113,303
4246,-111,4134,240
4247,-84,4149,240
4248,-84,4149,234
4249,-66,4116,234
4250,-75,4116,198
4251,-75,4098,285
4252,-99,4107,285
4253,-99,4107,228
4254,-90,4107,228
4255,-129,4107,225
4256,-129,4107,228
4257,-108,4098,228
4258,-108,4098,204
4259,-126,4095,204
4260,-117,4095,270
4261,-117,4107,288
4262,-147,4086,288
4263,-147,4086,219
4264,-162,4098,219
4265,-96,4098,234
4266,-96,4086,255
4267,-78,4065,255
4268,-78,4065,300
4269,-159,4092,300
4270,-153,4092,249
4271,-153,4095,174
4272,-90,4038,174
4273,-114,4038,213
4274,-114,4107,213
4275,-180,4107,183
4276,-180,4110,219
4277,-189,4086,219
4278,-129,4086,243
4279,-129,4062,243
4280,-90,4062,168
4281,-90,4035,195
4282,-102,4077,195
4283,-81,4077,183
4284,-81,4110,183
4285,-132,4110,279
4286,-132,4110,270
4287,-117,4089,270
4288,-114,4089,219
4289,-114,4080,219
4290,-144,4080,279
4291,-144,4038,189
4292,-114,4128,189
4293,-39,4128,243
4294,-39,4119,243
4295,-90,4119,270
4296,-90,4116,183
4297,-198,4089,183
4298,-144,4089,264
4299,-144,4098,219
4300,-117,4098,219
4301,-117,4110,183
4302,-102,4083,183
4303,-99,4083,258
4304,-99,4101,279
4305,-141,4101,279
4306,-141,4116,240
4307,-141,4092,240
4308,-165,4092,303
4309,-165,4068,303
4310,-141,4068,303
4311,-141,4080,264
4312,-102,4095,264
4313,-120,4095,279
4314,-120,4074,321
4315,-120,4074,321
4316,-120,4047,228
4317,-177,4047,228
4318,-120,4047,339
4319,-120,4080,234
4320,-90,4080,234
4321,-90,4101,264
4322,-96,4047,264
4323,-234,4047,210
4324,-234,4008,228
4325,-201,4008,228
4326,-201,4077,288
4327,-213,4089,288
4328,-129,4089,204
4329,-129,4089,294
4330,-168,4110,294
4331,-168,4110,249
4332,-216,4065,249
4333,-201,4065,228
4334,-201,4104,258
4335,-165,4080,258
4336,-165,4080,255
4337,-120,4104,255
4338,-114,4104,249
4339,-114,4101,249
4340,-60,4104,249
4341,-60,4104,264
4342,-84,4065,264
4343,-117,4065,336
4344,-117,4080,294
4345,-141,4074,294
4346,-141,4074,255
4347,-126,4053,255
4348,-135,4053,309
4349,-135,4077,240
4350,-159,4065,240
4351,-159,4065,210
4352,-180,4011,210
4353,-168,4011,189
4354,-168,4038,240
4355,-159,4056,240
4356,-159,4056,198
4357,-159,4119,198
4358,-111,4119,234
4359,-111,4050,351
4360,-108,4089,351
4361,-150,4089,303
4362,-150,4131,303
4363,-144,4131,288
4364,-144,4149,285
4365,-72,4137,285
4366,-63,4137,264
4367,-63,4149,264
4368,-60,4149,228
4369,-60,4119,258
4370,-75,4074,258
4371,-120,4074,279
4372,-120,4086,273
4373,-117,4086,273
4374,-117,4116,294
4375,-129,4092,294
4376,-96,4092,228
4377,-96,4059,240
4378,-135,4059,240
4379,-135,4035,309
4380,-144,4056,309
4381,-147,4056,303
4382,-147,4101,258
4383,-117,4101,258
4384,-117,4092,249
4385,-120,4056,249
4386,-180,4056,243
4387,-180,4077,255
4388,-204,4077,255
4389,-204,4095,219
4390,-186,4074,219
4391,-180,4074,285
4392,-180,4059,228
4393,-201,4059,228
4394,-201,4092,243
4395,-147,4101,243
4396,-150,4101,243
4397,-150,4089,270
4398,-147,4089,270
4399,-147,4089,219
4400,-144,4110,219
4401,-126,4110,336
4402,-126,4095,303
4403,-108,4095,303
4404,-108,4128,345
4405,-90,4098,345
4406,-39,4098,288
4407,-39,4113,288
4408,-51,4095,288
4409,-51,4095,258
4410,-57,4089,258
4411,-96,4089,315
4412,-96,4098,309
4413,-114,4113,309
4414,-114,4113,243
4415,-165,4068,243
4416,-159,4068,315
4417,-159,4017,258
4418,-165,4056,258
4419,-165,4056,228
4420,-126,4107,228
4421,-141,4107,183
4422,-141,4074,189
4423,-159,4056,189
4424,-159,4056,249
4425,-141,4077,249
4426,-153,4077,228
4427,-153,4101,249
4428,-177,4092,249
4429,-177,4092,249
4430,-141,4065,249
4431,-165,4065,294
4432,-165,4101,195
4433,-129,4107,195
4434,-129,4107,303
4435,-108,4128,303
4436,-159,4128,255
4437,-159,4086,243
4438,-150,4089,243
4439,-150,4089,309
4440,-132,4104,309
4441,-81,4104,264
4442,-81,4101,228
4443,-84,4095,228
4444,-117,4095,270
4445,-117,4086,270
4446,-114,4086,234
4447,-114,4032,213
4448,-159,4044,213
4449,-147,4044,303
4450,-147,4116,303
4451,-99,4116,258
4452,-99,4083,219
4453,-120,4128,219
4454,-132,4128,258
4455,-132,4101,258
4456,-159,4101,240
4457,-159,4080,240
4458,-120,4104,240
4459,-96,4104,243
4460,-96,4107,243
4461,-48,4107,300
4462,-48,4107,255
4463,-93,4059,255
4464,-150,4059,249
4465,-150,4104,270
4466,-141,4104,270
4467,-141,4065,228
4468,-144,4110,228
4469,-90,4110,336
4470,-90,4098,315
4471,-63,4098,315
4472,-63,4104,300
4473,-108,4098,300
4474,-144,4098,243
4475,-144,4080,300
4476,-93,4080,300
4477,-93,4077,294
4478,-30,4092,294
4479,-60,4092,264
4480,-60,4095,330
4481,-90,4095,330
4482,-90,4095,249
4483,-150,4056,249
4484,-117,4056,264
4485,-117,4086,243
4486,-129,4086,243
4487,-129,4107,225
4488,-126,4077,225
4489,-117,4077,204
4490,-117,4053,321
4491,-144,4053,321
4492,-144,4083,330
4493,-177,4068,330
4494,-183,4068,255
4495,-183,4068,294
4496,-147,4068,294
4497,-147,4068,240
4498,-153,4059,240
4499,-147,4059,288
4500,-147,4056,273
4501,-153,4056,273
4502,-153,4056,249
4503,-186,4032,249
4504,-114,4032,264
4505,-114,4065,315
4506,-120,4065,315
4507,-120,4065,279
4508,-75,4083,279
4509,-84,4083,345
4510,-84,4074,300
4511,-78,4056,300
4512,-78,4056,345
4513,-102,4041,345
4514,-66,4041,315
4515,-66,4089,324
4516,-60,4119,324
4517,-60,4119,381
4518,-9,4119,381
4519,-9,4119,264
4520,-9,4128,249
4521,-9,4119,249
4522,-9,4119,255
4523,-15,4119,255
4524,24,4119,273
4525,24,4125,243
4526,3,4125,243
4527,3,4125,228
4528,-12,4107,228
4529,-78,4107,303
4530,-78,4134,213
4531,-111,4083,213
4532,-72,4083,213
4533,-72,4050,213
4534,-102,4050,294
4535,-102,4077,264
4536,-144,4089,264
4537,-84,4089,279
4538,-84,4089,279
4539,-150,4089,273
4540,-150,4077,249
4541,-147,4068,249
4542,-147,4068,324
4543,-147,4047,324
4544,-177,4047,255
4545,-177,4086,273
4546,-129,4098,273
4547,-111,4098,288
4548,-111,4104,288
4549,-171,4104,303
4550,-171,4077,195
4551,-165,4059,195
4552,-162,4059,225
4553,-162,4065,225
4554,-147,4065,258
4555,-147,4089,309
4556,-147,4110,309
4557,-153,4110,321
4558,-153,4092,321
4559,-135,4092,315
4560,-135,4068,309
4561,-141,4074,309
4562,-126,4074,288
4563,-126,4065,321
4564,-135,4065,321
4565,-135,4137,330
4566,-108,4104,330
4567,-75,4104,324
4568,-75,4113,294
4569,-60,4113,294
4570,-60,4080,321
4571,-78,4104,321
4572,-126,4104,174
4573,-126,4113,321
4574,-51,4113,321
4575,-51,4095,273
4576,-39,4089,273
4577,-78,4089,264
4578,-78,4092,255
4579,-93,4092,255
4580,-93,4083,219
4581,-51,4062,219
4582,-15,4062,270
4583,-15,4074,249
4584,-66,4074,249
4585,-66,4056,279
4586,-72,4059,279
4587,-114,4059,315
4588,-114,4080,258
4589,-84,4080,258
4590,-84,4104,243
4591,-75,4104,243
4592,-114,4104,336
4593,-114,4077,270
4594,-150,4077,270
4595,-150,4035,279
4596,-147,4065,279
4597,-150,4065,264
4598,-150,4074,270
4599,-171,4074,270
4600,-171,4077,300
4601,-162,4041,300
4602,-159,4041,264
4603,-159,4041,243
4604,-180,4062,243
4605,-180,4062,234
4606,-141,4092,234
4607,-129,4092,279
4608,-129,4086,264
4609,-51,4080,264
4610,-51,4080,270
4611,-63,4107,270
4612,-102,4107,339
4613,-102,4110,288
4614,-111,4065,288
4615,-111,4065,300
4616,-90,4110,300
4617,-99,4110,336
4618,-99,4110,315
4619,-60,4101,315
4620,-60,4101,279
4621,-57,4101,279
4622,-48,4101,285
4623,-48,4068,210
4624,-75,4083,210
4625,-75,4083,279
4626,-99,4086,279
4627,-99,4086,255
4628,-99,4101,270
4629,-96,4089,270
4630,-96,4089,258
4631,-102,4068,258
4632,-66,4068,255
4633,-66,4083,279
4634,-120,4074,279
4635,-120,4074,270
4636,-120,4074,270
4637,-120,4074,270
4638,-120,4101,285
4639,-57,4134,285
4640,-57,4134,339
4641,-84,4098,339
4642,-96,4098,270
4643,-96,4092,381
4644,-45,4104,381
4645,-45,4104,366
4646,-75,4098,366
4647,-75,4098,321
4648,-75,4110,369
4649,-90,4089,369
4650,-90,4089,336
4651,-114,4086,336
4652,-111,4086,360
4653,-111,4119,303
4654,-198,4059,303
4655,-240,4059,303
4656,-240,4053,303
4657,-267,4053,321
4658,-267,4068,270
4659,-222,4023,270
4660,-216,4023,273
4661,-216,4065,273
4662,-249,4065,240
4663,-249,4047,189
4664,-177,4068,189
4665,-129,4068,195
4666,-129,4077,195
4667,-84,4077,219
4668,-84,4095,249
4669,-117,4086,249
4670,-168,4086,288
4671,-168,4113,288
4672,-147,4113,330
4673,-147,4113,264
4674,-147,4056,264
4675,-114,4056,321
4676,-114,4050,336
4677,-171,4050,336
4678,-171,4047,288
4679,-147,4038,288
4680,-171,4038,270
4681,-171,4032,285
4682,-162,4032,285
4683,-162,4050,303
4684,-147,4065,303
4685,-126,4065,294
4686,-126,4125,273
4687,-114,4125,273
4688,-114,4095,258
4689,-48,4074,258
4690,-96,4074,300
4691,-96,4095,228
4692,-99,4095,228
4693,-99,4125,243
4694,-102,4095,243
4695,-63,4095,294
4696,-63,4104,270
4697,-24,4104,270
4698,-24,4101,258
4699,-57,4128,258
4700,-51,4128,339
4701,-51,4074,228
4702,-108,4074,228
4703,-108,4059,288
4704,24,4101,288
4705,-9,4101,399
4706,-9,4119,351
4707,-78,4119,351
4708,-78,4128,369
4709,-84,4065,369
4710,-57,4065,315
4711,-57,4050,279
4712,-108,4050,279
4713,-108,4083,324
4714,-108,4080,324
4715,-96,4080,270
4716,-96,4098,270
4717,-90,4119,270
4718,-90,4119,255
4719,-90,4101,255
4720,-102,4101,240
4721,-102,4101,258
4722,-96,4086,258
4723,-96,4086,234
4724,-117,4044,234
4725,-111,4044,243
4726,-111,4056,270
4727,-129,4086,270
4728,-129,4086,219
4729,-57,4113,219
4730,-42,4113,255
4731,-42,4095,243
4732,-48,4047,243
4733,-48,4047,243
4734,-222,4026,243
4735,-198,4026,249
4736,-198,4023,189
4737,-291,4056,189
4738,-291,4056,243
4739,-189,4074,243
4740,-33,4074,300
4741,-33,4161,336
4742,24,4131,336
4743,24,4131,369
4744,39,4116,369
4745,-51,4116,321
4746,-51,4080,336
4747,-81,4083,336
4748,-81,4083,375
4749,-33,4137,375
4750,9,4137,345
4751,9,4131,411
4752,9,4104,411
4753,9,4104,390
4754,-78,4089,390
4755,-117,4089,384
4756,-117,4053,360
4757,-93,4095,360
4758,-51,4095,285
4759,-51,4113,285
4760,-78,4113,288
4761,-78,4110,273
4762,-99,4068,273
4763,-99,4068,198
4764,-99,4080,198
4765,-93,4080,255
4766,-93,4113,240
4767,-90,4107,240
4768,-90,4107,255
4769,-90,4116,255
4770,-102,4116,321
4771,-102,4101,279
4772,-120,4059,279
4773,-120,4059,270
4774,-120,4056,270
4775,-180,4056,255
4776,-180,4056,294
4777,-162,4050,294
4778,-150,4050,339
4779,-150,4110,351
4780,-162,4110,351
4781,-162,4110,264
4782,-111,4059,264
4783,-99,4059,285
4784,-99,4140,339
4785,-81,4140,339
4786,-81,4146,351
4787,-99,4149,351
4788,-48,4149,360
4789,-48,4077,390
4790,-111,4077,390
4791,-111,4086,384
4792,-162,4089,384
4793,-114,4089,336
4794,-114,4062,354
4795,-99,4062,354
4796,-99,4041,288
4797,-150,4014,288
4798,-240,4014,270
4799,-240,4002,243
4800,-228,4002,243
4801,-228,4035,258
4802,-195,4056,258
4803,-195,4056,219
4804,-195,4047,204
4805,-147,4047,204
4806,-147,4038,180
4807,-189,4026,180
4808,-147,4026,213
4809,-147,4038,189
4810,-144,4038,189
4811,-144,4077,174
4812,-93,4062,174
4813,-66,4062,174
4814,-66,4098,303
4815,-45,4098,303
4816,-45,4092,339
4817,-57,4080,339
4818,-63,4080,366
4819,-63,4086,336
4820,-78,4095,336
4821,-78,4095,330
4822,-6,4146,330
4823,-33,4146,321
4824,-33,4116,321
4825,0,4119,321
4826,0,4119,360
4827,-12,4107,360
4828,-12,4107,354
4829,-12,4134,414
4830,-72,4134,414
4831,-72,4134,420
4832,-24,4143,420
4833,-63,4143,411
4834,-63,4092,360
4835,-84,4059,360
4836,-84,4059,321
4837,-60,4059,321
4838,-75,4059,309
4839,-75,4092,321
4840,-42,4083,321
4841,-42,4083,258
4842,-60,4095,258
4843,-57,4095,273
4844,-57,4068,240
4845,-75,4092,240
4846,-75,4092,195
4847,-45,4023,195
4848,-90,4023,225
4849,-90,4035,270
4850,-75,4062,270
4851,-75,4062,264
4852,-84,4101,264
4853,-48,4101,336
4854,-48,4062,279
4855,-72,4017,279
4856,-72,4017,279
4857,-102,4086,279
4858,-81,4086,354
4859,-81,4092,294
4860,-15,4092,294
4861,-15,4092,366
4862,-66,4104,366
4863,-60,4104,321
4864,-60,4092,351
4865,-111,4101,351
4866,-111,4101,384
4867,-102,4098,384
4868,-120,4098,339
4869,-120,4095,288
4870,-147,4053,288
4871,-147,4053,345
4872,-126,4056,345
4873,-129,4056,270
4874,-129,4041,294
4875,-186,4056,294
4876,-186,4056,255
4877,-198,4044,255
4878,-141,4044,195
4879,-141,4080,273
4880,-108,4056,273
4881,-81,4056,255
4882,-81,4083,255
4883,-111,4083,228
4884,-111,4059,189
4885,-114,4074,189
4886,-108,4074,174
4887,-108,4089,174
4888,-57,4089,273
4889,-57,4110,240
4890,-30,4077,240
4891,-12,4077,204
4892,-12,4092,204
4893,-24,4092,255
4894,-24,4065,375
4895,-45,4125,375
4896,45,4125,309
4897,45,4134,309
4898,-9,4134,315
4899,-9,4113,315
4900,-30,4098,315
4901,-27,4098,354
4902,-27,4077,354
4903,-60,4077,351
4904,-60,4149,321
4905,-12,4158,321
4906,-45,4158,375
4907,-45,4113,375
4908,-90,4113,285
4909,-90,4077,249
4910,-72,4065,249
4911,-117,4065,234
4912,-117,4056,309
4913,-150,4056,309
4914,-150,4152,336
4915,-153,4104,336
4916,-171,4104,270
4917,-171,4086,273
4918,-144,4086,273
4919,-144,4053,204
4920,-144,4056,204
4921,-177,4056,183
4922,-177,4062,309
4923,-165,4062,309
4924,-165,4092,258
4925,-153,4107,258
4926,-153,4107,258
4927,-153,4092,285
4928,-126,4092,285
4929,-126,4053,240
4930,-162,4002,240
4931,-150,4002,174
4932,-150,4056,210
4933,-141,4056,210
4934,-141,4086,213
4935,-165,4068,213
4936,-132,4068,258
4937,-132,4017,279
4938,-171,4017,279
4939,-171,4014,240
4940,-141,4059,240
4941,-81,4059,228
4942,-81,4083,270
4943,-96,4083,270
4944,-96,4128,303
4945,-51,4104,303
4946,-48,4104,315
4947,-48,4104,288
4948,-96,4104,288
4949,-96,4104,300
4950,-93,4125,300
4951,-81,4125,354
4952,-81,4149,369
4953,-24,4149,369
4954,-24,4137,351
4955,-39,4146,351
4956,-99,4146,309
4957,-99,4113,375
4958,-99,4143,375
4959,-99,4143,294
4960,-135,4128,294
4961,-114,4128,360
4962,-114,4137,324
4963,-141,4119,324
4964,-141,4119,339
4965,-117,4083,339
4966,-132,4083,270
4967,-132,4089,243
4968,-144,4080,243
4969,-144,4080,243
4970,-177,4059,243
4971,-177,4059,288
4972,-177,4044,279
4973,-147,4035,279
4974,-147,4035,168
4975,-177,4065,168
4976,-114,4065,183
4977,-114,4041,153
4978,-168,4041,153
4979,-168,4041,195
4980,-147,4077,195
4981,-135,4077,198
4982,-135,4074,180
4983,-126,4080,180
4984,-126,4080,210
4985,-117,4089,210
4986,-93,4089,210
4987,-93,4086,228
4988,-162,4059,228
4989,-162,4059,255
4990,-159,4086,255
4991,-153,4086,264
4992,-153,4080,240
4993,-90,4095,240
4994,-111,4095,270
4995,-111,4098,270
4996,-126,4098,234
4997,-126,4080,258
4998,-102,4101,258
4999,-135,4101,285
5000,-135,4107,285
5001,-141,4107,324
5002,-141,4107,264
5003,-114,4128,264
5004,-147,4128,243
5005,-147,4080,243
5006,-129,4080,273
5007,-129,4095,321
5008,-99,4062,321
5009,-108,4062,288
5010,-108,4086,288
5011,-126,4086,285
5012,-126,4080,315
5013,-132,4068,315
5014,-90,4068,279
5015,-90,4092,279
5016,-135,4092,234
5017,-135,4065,279
5018,-117,4089,279
5019,-108,4089,240
5020,-108,4083,240
5021,-144,4083,219
5022,-144,4026,273
5023,-144,4050,273
5024,-147,4050,213
5025,-147,4050,213
5026,-96,4050,183
5027,-96,4086,144
5028,-81,4083,144
5029,-183,4083,180
5030,-183,4077,180
5031,-165,4077,165
5032,-165,4065,135
5033,-120,4026,135
5034,-63,4026,198
5035,-63,4086,198
5036,-120,4086,285
5037,-120,4104,234
5038,-216,4116,234
5039,-201,4116,300
5040,-201,4056,300
5041,-150,4056,273
5042,-150,4050,264
5043,-120,4098,264
5044,-96,4098,258
5045,-96,4116,294
5046,-168,4116,294
5047,-168,4086,204
5048,-150,4083,204
5049,-72,4083,303
5050,-72,4104,300
5051,-78,4104,300
5052,-78,4110,264
5053,-132,4113,264
5054,-186,4113,273
5055,-186,4125,285
5056,-171,4125,285
5057,-171,4131,273
5058,-189,4158,273
5059,-78,4158,330
5060,-78,4176,330
5061,-30,4176,330
5062,-30,4164,336
5063,-90,4080,336
5064,-201,4080,366
5065,-201,4140,396
5066,-195,4140,396
5067,-195,4110,384
5068,-72,4140,384
5069,-21,4140,303
5070,-21,4074,240
5071,-129,4074,240
5072,-129,4035,219
5073,-177,4017,219
5074,-111,4017,150
5075,-111,4032,243
5076,-111,4032,243
5077,-111,4050,150
5078,-96,4023,150
5079,-78,4023,120
5080,-78,3966,144
5081,-48,3966,144
5082,-48,4041,165
5083,-120,4068,165
5084,-168,4068,174
5085,-168,4110,150
5086,-93,4011,150
5087,-93,4011,153
5088,3,4023,153
5089,21,4023,195
5090,21,4143,264
5091,48,4194,264
5092,48,4194,255
5093,57,4107,255
5094,-33,4107,225
5095,-33,4113,243
5096,-81,4062,243
5097,-81,4062,249
5098,-42,4134,249
5099,-30,4134,210
5100,-30,4104,288
5101,-117,4116,288
5102,-117,4116,381
5103,-189,4104,381
5104,-195,4104,294
5105,-195,4110,264
5106,-120,4074,264
5107,-120,4074,294
5108,-99,4107,294
5109,-129,4107,234
5110,-129,4119,264
5111,-198,4104,264
5112,-198,4104,285
5113,-153,4092,285
5114,-168,4092,213
5115,-168,4089,225
5116,-117,4110,225
5117,-135,4110,240
5118,-135,4203,240
5119,-117,4203,258
5120,-117,4227,219
5121,-96,4215,219
5122,-111,4215,249
5123,-111,4194,249
5124,-93,4194,288
5125,-93,4176,303
5126,-63,4167,303
5127,-63,4167,375
5128,-63,4158,375
5129,-81,4158,324
5130,-81,4053,399
5131,-66,4086,399
5132,-114,4086,405
5133,-114,4104,309
5134,-183,4104,309
5135,-183,4065,258
5136,-132,4011,258
5137,-93,4011,198
5138,-93,4032,228
5139,-72,4032,228
5140,-72,4089,258
5141,0,4107,258
5142,-33,4107,144
5143,-33,4164,273
5144,-84,4164,273
5145,-84,4170,288
5146,-114,4002,288
5147,-51,4002,294
5148,-51,4101,288
5149,36,4101,288
5150,36,4131,336
5151,45,4137,336
5152,-24,4137,420
5153,-24,4107,396
5154,3,4107,396
5155,3,4068,399
5156,-48,4017,399
5157,0,4017,471
5158,0,4050,435
5159,81,4044,435
5160,81,4044,429
5161,78,4062,429
5162,24,4062,420
5163,24,4044,444
5164,-21,3990,444
5165,-21,3990,504
5166,-48,3990,504
5167,-6,3990,465
5168,-6,4011,441
5169,24,4065,441
5170,24,4065,516
5171,45,4002,516
5172,-51,4002,501
5173,-51,3990,456
5174,12,3963,456
5175,12,3963,459
5176,144,4059,459
5177,123,4059,471
5178,123,4119,504
5179,45,4056,504
5180,45,4056,429
5181,57,3954,429
5182,114,3954,486
5183,114,3876,444
5184,69,3978,444
5185,69,3978,420
5186,183,3987,420
5187,165,3987,429
5188,165,3972,450
5189,57,3957,450
5190,57,3957,384
5191,57,3984,384
5192,63,3984,345
5193,63,4050,330
5194,54,4074,330
5195,54,4074,339
5196,27,4095,339
5197,0,4095,366
5198,0,4188,411
5199,-57,4170,411
5200,-66,4170,396
5201,-66,4143,396
5202,-90,4143,405
5203,-90,4068,435
5204,-219,4065,435
5205,-273,4065,501
5206,-273,4068,501
5207,-291,4068,615
5208,-291,4032,546
5209,-264,4050,546
5210,-282,4050,540
5211,-282,4062,540
5212,-204,4062,504
5213,-204,4068,465
5214,-264,4155,465
5215,-219,4155,486
5216,-219,4146,501
5217,-144,4146,501
5218,-144,4188,489
5219,-108,4218,489
5220,-15,4218,465
5221,-15,4167,489
5222,-78,4167,489
5223,-78,4203,459
5224,-93,4146,459
5225,-144,4146,471
5226,-144,4089,486
5227,-141,4089,486
5228,-141,4059,531
5229,-180,4068,531
5230,-252,4068,594
5231,-252,4065,564
5232,-315,4065,564
5233,-315,4092,546
5234,-279,4089,546
5235,-222,4089,465
5236,-222,4089,420
5237,-306,4089,420
5238,-306,4014,288
5239,-348,3975,288
5240,-237,3975,195
5241,-237,4050,225
5242,-84,4125,225
5243,-84,4125,324
5244,-57,4056,324
5245,-108,4056,315
5246,-108,4017,240
5247,-204,3936,240
5248,-204,3936,321
5249,-237,3939,321
5250,-201,3939,330
5251,-201,3993,384
5252,-168,4053,384
5253,-168,4053,435
5254,-129,4002,435
5255,-177,4002,339
5256,-177,3984,330
5257,-234,3987,330
5258,-234,3987,264
5259,-135,4017,264
5260,3,4017,288
5261,3,4080,228
5262,-27,4098,228
5263,-27,4098,288
5264,-24,4080,288
5265,12,4080,234
5266,12,4020,294
5267,24,4020,294
5268,24,4020,303
5269,69,4029,303
5270,60,4029,258
5271,60,3966,243
5272,6,3939,243
5273,6,3939,219
5274,-42,3921,219
5275,-42,3921,255
5276,-42,3996,258
5277,-15,3966,258
5278,-15,3966,165
5279,6,3978,165
5280,-15,3978,219
5281,-15,4044,195
5282,-39,4029,195
5283,24,4029,204
5284,24,4050,204
5285,-9,4050,174
5286,-9,4068,270
5287,-72,4113,270
5288,-108,4113,324
5289,-108,4104,324
5290,-66,4104,330
5291,-66,4056,345
5292,-108,4050,345
5293,-153,4050,381
5294,-153,4053,381
5295,-51,4053,336
5296,-51,4038,183
5297,-45,4095,183
5298,-30,4095,264
5299,-30,4155,264
5300,-27,4155,294
5301,-27,4209,255
5302,-60,4254,255
5303,-33,4254,195
5304,-33,4194,195
5305,-102,4194,213
5306,-102,4140,234
5307,-42,4185,234
5308,18,4185,300
5309,18,4176,300
5310,-33,4176,309
5311,-33,4161,384
5312,-60,4110,384
5313,-84,4110,294
5314,-84,4086,324
5315,-90,4086,324
5316,-90,4152,309
5317,-30,4164,309
5318,-6,4164,273
5319,-6,4200,321
5320,-39,4200,321
5321,-39,4164,279
5322,-108,4191,279
5323,-45,4191,198
5324,-45,4200,168
5325,-15,4200,168
5326,-15,4161,210
5327,-21,4170,210
5328,-30,4170,135
5329,-30,4134,93
5330,-78,4134,93
5331,-78,4050,165
5332,-9,4089,165
5333,30,4089,198
5334,30,4071,180
5335,-15,4071,180
5336,-15,4149,204
5337,-93,4149,204
5338,-93,4149,159
5339,-93,4083,228
5340,-33,4083,228
5341,-33,4011,219
5342,36,3984,219
5343,63,3984,294
5344,63,4062,321
5345,-33,4116,321
5346,-33,4116,336
5347,-42,4107,336
5348,-81,4107,240
5349,-81,4113,270
5350,-102,4080,270
5351,-102,4080,153
5352,-147,4161,153
5353,-153,4161,219
5354,-153,4143,129
5355,-114,4155,129
5356,-114,4155,144
5357,-99,4116,144
5358,-90,4116,174
5359,-90,4032,114
5360,-102,3990,114
5361,-102,3990,219
5362,-81,4008,219
5363,-129,4008,273
5364,-129,3999,264
5365,-195,4041,264
5366,-195,4041,294
5367,-198,4056,294
5368,-135,4056,324
5369,-135,4062,240
5370,-126,4083,240
5371,-126,4083,303
5372,-135,4095,303
5373,-141,4095,321
5374,-141,4065,315
5375,-111,4047,315
5376,-111,4047,285
5377,-12,4047,285
5378,-24,4047,336
5379,-24,4080,279
5380,-108,4110,279
5381,-108,4110,300
5382,-78,4092,300
5383,-90,4092,255
5384,-90,4089,300
5385,-96,4083,300
5386,-78,4083,360
5387,-78,4095,360
5388,-60,4095,285
5389,-60,4101,315
5390,-42,4092,315
5391,-12,4092,243
5392,-12,4113,243
5393,-15,4113,225
5394,-15,4101,270
5395,6,4116,270
5396,48,4116,294
5397,48,4131,294
5398,12,4131,240
5399,12,4071,255
5400,-33,4041,255
5401,-63,4041,294
5402,-63,4065,255
5403,-93,4065,255
5404,-93,4095,180
5405,-90,4059,180
5406,-75,4059,234
5407,-75,4086,225
5408,-90,4086,225
5409,-90,4083,210
5410,-132,4074,210
5411,-153,4074,210
5412,-153,4089,189
5413,-189,4089,189
5414,-189,4062,228
5415,-234,4050,228
5416,-171,4050,228
5417,-171,4050,258
5418,-135,4050,258
5419,-135,4059,210
5420,-144,4095,210
5421,-111,4095,258
5422,-111,4107,285
5423,-117,4107,285
5424,-117,4125,300
5425,-120,4113,300
5426,-93,4113,273
5427,-93,4146,288
5428,-111,4146,288
5429,-111,4218,369
5430,-132,4188,369
5431,-171,4188,324
5432,-171,4209,339
5433,-201,4209,339
5434,-201,4164,315
5435,-126,4137,315
5436,-183,4137,324
5437,-183,4143,384
5438,-57,4143,384
5439,-57,4104,339
5440,-24,4119,339
5441,-33,4119,351
5442,-33,4083,390
5443,-57,4086,390
5444,-57,4086,354
5445,-60,4098,354
5446,-132,4098,336
5447,-132,4035,411
5448,-114,3987,411
5449,-114,3987,384
5450,-198,3978,384
5451,-189,3978,339
5452,-189,3942,300
5453,-129,3957,300
5454,-129,3957,213
5455,-102,3966,213
5456,-78,3966,225
5457,-78,4029,189
5458,-84,4074,189
5459,-84,4074,144
5460,6,4008,144
5461,12,4008,165
5462,12,4056,294
5463,3,4086,294
5464,3,4086,210
5465,39,4134,210
5466,-27,4134,243
5467,-27,4140,174
5468,18,4122,174
5469,18,4122,174
5470,57,4068,174
5471,54,4068,270
5472,54,4083,204
5473,-6,4023,204
5474,-15,4023,264
5475,-15,4083,264
5476,-12,4083,279
5477,-12,4104,345
5478,-48,4098,345
5479,-81,4098,288
5480,-81,4026,288
5481,-81,4026,309
5482,-81,4035,321
5483,-63,4026,321
5484,-102,4026,330
5485,-102,4044,330
5486,-84,4044,303
5487,-84,4035,315
5488,-81,4059,315
5489,-81,4059,279
5490,-81,4086,309
5491,-99,4086,309
5492,-99,4092,243
5493,-135,4059,243
5494,-144,4059,321
5495,-144,4062,285
5496,-159,4062,285
5497,-159,4095,324
5498,-93,4050,324
5499,-63,4050,321
5500,-63,4062,273
5501,-66,4062,273
5502,-66,4104,279
5503,-33,4050,279
5504,-117,4050,300
5505,-117,4017,168
5506,-114,4017,168
5507,-114,3963,243
5508,-63,4047,243
5509,9,4047,174
5510,9,4173,195
5511,63,4173,195
5512,63,4221,108
5513,6,4227,108
5514,-99,4227,183
5515,-99,4182,174
5516,-66,4152,174
5517,-66,4152,273
5518,0,4233,273
5519,6,4233,375
5520,6,4248,444
5521,-63,4146,444
5522,-63,4146,471
5523,-117,4113,471
5524,-132,4113,396
5525,-132,4119,420
5526,-141,4104,420
5527,-141,4104,420
5528,-117,4083,420
5529,-180,4083,396
5530,-180,4047,396
5531,-150,4017,396
5532,-150,4017,366
5533,-177,3987,366
5534,-141,3987,330
5535,-141,4062,300
5536,-144,4092,300
5537,-144,4092,255
5538,-183,4089,255
5539,-102,4089,150
5540,-102,4083,189
5541,-90,4125,189
5542,-90,4125,180
5543,-51,4164,180
5544,-111,4164,228
5545,-111,4143,228
5546,-93,4113,228
5547,-57,4113,234
5548,-57,4131,234
5549,-132,4131,183
5550,-132,4092,165
5551,-141,4065,165
5552,-108,4065,189
5553,-108,4056,189
5554,-183,4056,258
5555,-183,4056,189
5556,-186,4005,189
5557,-210,4005,213
5558,-210,3942,213
5559,-270,3942,228
5560,-270,3996,288
5561,-318,4008,288
5562,-309,4008,243
5563,-309,4062,234
5564,-273,4062,234
5565,-273,4086,303
5566,-234,4065,303
5567,-201,4065,279
5568,-201,4050,300
5569,-204,4050,300
5570,-204,4056,303
5571,-180,4101,303
5572,-135,4101,285
5573,-135,4134,249
5574,-189,4134,249
5575,-189,4128,255
5576,-195,4086,255
5577,-195,4086,249
5578,-195,4056,294
5579,-195,4056,294
5580,-195,4092,315
5581,-135,4110,315
5582,-168,4110,360
5583,-168,4113,321
5584,-210,4113,321
5585,-210,4047,351
5586,-234,4014,351
5587,-198,4014,243
5588,-198,4014,330
5589,-183,4014,330
5590,-183,4059,279
5591,-144,4053,279
5592,-150,4053,315
5593,-150,4086,279
5594,-108,4083,279
5595,-108,4083,270
5596,-66,4101,270
5597,-21,4101,240
5598,-21,4110,249
5599,-81,4107,249
5600,-81,4107,180
5601,9,4119,180
5602,-15,4119,264
5603,-15,4062,153
5604,-12,4089,153
5605,-12,4089,279
5606,-45,4116,279
5607,12,4116,255
5608,12,4086,321
5609,6,4092,321
5610,6,4092,240
5611,-12,4116,240
5612,-30,4116,285
5613,-30,4095,243
5614,6,4140,243
5615,6,4140,270
5616,-15,4134,270
5617,-9,4134,273
5618,-9,4140,228
5619,-21,4092,228
5620,-21,4092,204
5621,-93,4110,204
5622,-96,4110,234
5623,-96,4113,264
5624,-72,4146,264
5625,-72,4146,288
5626,-81,4155,288
5627,-84,4155,219
5628,-84,4119,288
5629,-153,4077,288
5630,-126,4077,195
5631,-126,4065,195
5632,-120,4065,279
5633,-120,4077,273
5634,-99,4116,273
5635,-126,4116,249
5636,-126,4110,249
5637,-117,4110,258
5638,-117,4146,210
5639,-150,4077,210
5640,-162,4077,225
5641,-162,4062,225
5642,-129,4062,165
5643,-129,4008,258
5644,-120,4053,258
5645,-159,4053,249
5646,-159,4098,249
5647,-198,4098,249
5648,-198,4059,228
5649,-132,4032,228
5650,-162,4032,159
5651,-162,4038,180
5652,-201,4038,180
5653,-201,4005,123
5654,-150,4038,123
5655,-135,4038,174
5656,-135,4107,159
5657,-159,4107,159
5658,-159,4065,204
5659,-189,4068,204
5660,-213,4068,183
5661,-213,4077,195
5662,-186,4077,195
5663,-186,4107,228
5664,-195,4104,228
5665,-189,4104,225
5666,-189,4056,288
5667,-162,4056,288
5668,-162,4032,249
5669,-177,4083,249
5670,-159,4083,243
5671,-159,4098,210
5672,-141,4098,210
5673,-141,4089,240
5674,-180,4092,240
5675,-135,4092,195
5676,-135,4086,213
5677,-126,4086,213
5678,-126,4089,213
5679,-99,4101,213
5680,-102,4101,225
5681,-102,4110,153
5682,-96,4092,153
5683,-96,4092,183
5684,-96,4077,183
5685,-135,4077,183
5686,-135,4086,234
5687,-102,4188,234
5688,-102,4188,204
5689,-117,4281,204
5690,-66,4281,198
5691,-66,4158,228
5692,-57,4008,228
5693,-57,4008,255
5694,-96,3927,255
5695,-135,3927,213
5696,-135,3945,204
5697,-171,3999,204
5698,-171,3999,159
5699,-150,3960,159
5700,-159,3960,153
5701,-159,3987,174
5702,-165,4062,174
5703,-165,4062,93
5704,-114,4080,93
5705,-30,4080,144
5706,-30,4074,234
5707,-72,4095,234
5708,-72,4095,168
5709,-66,4086,168
5710,-30,4086,240
5711,-30,4107,285
5712,-45,4143,285
5713,-45,4143,294
5714,-27,4134,294
5715,-51,4134,255
5716,-51,4128,273
5717,-66,4134,273
5718,-66,4134,243
5719,-102,4134,243
5720,-39,4134,288
5721,-39,4149,324
5722,-12,4206,324
5723,-12,4206,375
5724,6,4290,375
5725,129,4290,441
5726,129,4308,480
5727,36,4191,480
5728,36,4191,456
5729,-162,3978,456
5730,-405,3978,414
5731,-405,3843,288
5732,-369,3894,288
5733,-369,3894,294
5734,-27,3954,294
5735,6,3954,228
5736,6,4041,219
5737,-81,4023,219
5738,-81,4023,99
5739,-63,3933,99
5740,21,3933,54
5741,21,3945,84
5742,57,4011,84
5743,42,4011,54
5744,42,4053,54
5745,60,4053,63
5746,60,4086,69
5747,-33,4089,69
5748,-132,4089,105
5749,-132,4035,105
5750,-168,4035,153
5751,-168,3960,0
5752,-114,4011,0
5753,-30,4011,9
5754,-30,4116,9
5755,27,4116,33
5756,27,4152,-21
5757,54,4173,-21
5758,84,4173,-33
5759,84,4215,-57
5760,123,4215,-57
5761,123,4158,-108
5762,129,4308,-108
5763,183,4308,-93
5764,183,4323,-57
5765,198,4323,-57
5766,198,4257,-63
5767,93,4182,-63
5768,24,4182,60
5769,24,4110,129
5770,3,4110,129
5771,3,4194,324
5772,90,4404,324
5773,147,4404,354
5774,147,4419,396
5775,81,4419,396
5776,81,4338,375
5777,-24,4311,375
5778,-210,4311,366
5779,-210,4233,324
5780,-387,4170,324
5781,-387,4170,321
5782,-198,4329,321
5783,99,4329,324
5784,99,4308,255
5785,201,4380,255
5786,201,4380,213
5787,174,4311,213
5788,186,4311,210
5789,186,4287,54
5790,279,4212,54
5791,279,4212,9
5792,132,4098,9
5793,51,4098,-42
5794,51,3966,-153
5795,-147,3846,-153
5796,-147,3846,-123
5797,-240,3753,-123
5798,-327,3753,-147
5799,-327,3711,-126
5800,-309,3855,-126
5801,-309,3855,-51
5802,-207,3951,-51
5803,-126,3951,9
5804,-126,4008,63
5805,-147,4005,63
5806,-270,4005,9
5807,-270,4047,9
5808,-180,4047,-21
5809,-180,4104,-93
5810,6,4200,-93
5811,114,4200,-102
5812,114,4242,-102
5813,177,4242,-57
5814,177,4203,-162
5815,195,4182,-162
5816,249,4182,-147
5817,249,4089,-147
5818,210,4089,-66
5819,210,4011,-12
5820,126,3933,-12
5821,-186,3933,3
5822,-186,3813,33
5823,-426,3813,33
5824,-426,3789,84
5825,-210,3972,84
5826,219,3972,153
5827,219,4131,228
5828,408,4131,228
5829,408,4251,330
5830,390,4236,330
5831,357,4236,210
5832,357,4137,129
5833,219,4137,129
5834,219,4014,108
5835,36,4020,108
5836,6,4020,63
5837,6,4047,108
5838,-66,4047,108
5839,-66,4002,108
5840,-183,4053,108
5841,-327,4053,153
5842,-327,3924,69
5843,-327,3972,69
5844,-327,3972,294
5845,-198,4128,294
5846,-21,4128,228
5847,-21,4143,264
5848,156,4215,264
5849,156,4215,249
5850,186,4149,249
5851,69,4149,249
5852,69,4083,150
5853,18,4029,150
5854,18,4029,180
5855,-267,3942,180
5856,-438,3942,174
5857,-438,3921,309
5858,-378,4014,309
5859,-201,4014,294
5860,-201,4107,294
5861,0,4107,309
5862,0,4149,300
5863,126,4131,300
5864,114,4131,303
5865,114,4125,303
5866,57,4125,294
5867,57,4029,351
5868,24,4038,351
5869,-93,4038,381
5870,-93,4107,366
5871,-342,4107,366
5872,-342,3975,345
5873,-441,3930,345
5874,-216,3930,339
5875,-216,3987,339
5876,156,3987,339
5877,156,4101,456
5878,465,4251,456
5879,405,4251,555
5880,405,4266,564
5881,141,4266,564
5882,141,4161,555
5883,9,4137,555
5884,-27,4137,465
5885,-27,4098,465
5886,-108,4098,465
5887,-108,3990,444
5888,-291,3975,444
5889,-219,3975,441
5890,-219,4080,426
5891,105,4080,426
5892,105,4158,411
5893,243,4149,411
5894,156,4149,414
5895,156,4068,426
5896,-39,4029,426
5897,-39,4029,399
5898,-6,3978,399
5899,-48,3978,456
5900,-48,4005,486
5901,-234,4053,486
5902,-234,4053,450
5903,-159,4101,450
5904,27,4101,486
5905,27,4083,510
5906,111,4122,510
5907,111,4122,474
5908,111,4140,474
5909,48,4140,429
5910,48,4095,420
5911,75,4107,420
5912,75,4107,420
5913,54,4059,420
5914,105,4059,510
5915,105,4155,525
5916,54,4107,525
5917,54,4107,486
5918,18,4068,486
5919,69,4068,465
5920,69,3984,474
5921,165,4023,474
5922,165,4023,474
5923,195,4053,474
5924,255,4053,480
5925,255,4056,540
5926,186,3966,540
5927,114,3966,531
5928,114,4014,531
5929,87,4014,525
5930,87,4098,594
5931,276,4110,594
5932,-6,4110,564
5933,-6,3975,564
5934,-63,3975,435
5935,-63,3876,345
5936,-246,3741,345
5937,-669,3741,324
5938,-669,3624,225
5939,-723,3624,225
5940,-723,3750,165
5941,-126,4131,165
5942,1455,4131,366
5943,1455,4911,681
5944,2196,4911,681
5945,2196,4818,657
5946,1614,4359,657
5947,699,4359,336
5948,699,4056,153
5949,-63,4056,153
5950,-63,3702,174
5951,-816,3495,174
5952,-1287,3495,153
5953,-1287,3606,273
5954,-804,3606,273
5955,-804,3984,369
5956,-33,4272,369
5957,426,4272,471
5958,426,4365,465
5959,564,4374,465
5960,564,4374,384
5961,537,4341,384
5962,423,4341,345
5963,423,4188,315
5964,216,4104,315
5965,216,4104,321
5966,30,4056,321
5967,-135,4056,309
5968,-135,4032,330
5969,-252,3972,330
5970,-252,3972,360
5971,-279,3957,360
5972,-264,3957,339
5973,-264,3996,426
5974,-51,4053,426
5975,-51,4053,360
5976,126,4095,360
5977,159,4095,375
5978,159,4068,336
5979,93,4014,336
5980,93,4014,303
5981,45,4035,303
5982,87,4035,294
5983,87,4092,279
5984,183,4158,279
5985,198,4158,351
5986,198,4038,351
5987,-93,4038,300
5988,-93,3954,225
5989,-183,3966,225
5990,48,3966,279
5991,48,4044,279
5992,183,4044,315
5993,183,4167,336
5994,126,4122,336
5995,-39,4122,300
5996,-39,4182,300
5997,-99,4182,324
5998,-99,4068,243
5999,9,4095,243
6000,-126,4095,159
6001,-126,4008,159
6002,-150,4008,225
6003,-150,4125,264
6004,90,4224,264
6005,261,4224,321
6006,261,4275,396
6007,387,4275,396
6008,387,4155,390
6009,174,4074,390
6010,-21,4074,411
6011,-21,4092,384
6012,6,4092,384
6013,6,4095,339
6014,90,4089,339
6015,141,4089,324
6016,141,4032,339
6017,-129,4032,339
6018,-129,4059,324
6019,-387,4005,324
6020,-333,4005,258
6021,-333,4059,309
6022,-12,4059,309
6023,-12,4182,345
6024,333,4260,345
6025,438,4260,381
6026,438,4278,435
6027,444,4278,435
6028,444,4227,375
6029,186,4053,375
6030,-222,4053,303
6031,-222,3948,270
6032,-315,3972,270
6033,-315,3972,189
6034,-186,3975,189
6035,-93,3975,285
6036,-93,4038,249
6037,-48,4101,249
6038,-48,4101,264
6039,132,4155,264
6040,390,4155,273
6041,390,4203,264
6042,387,4140,264
6043,387,4140,228
6044,243,4104,228
6045,123,4104,243
6046,123,4110,243
6047,-24,4014,243
6048,-24,4014,255
6049,-144,3963,255
6050,-183,3963,243
6051,-183,4023,255
6052,-111,4014,255
6053,42,4014,273
6054,42,4056,273
6055,87,4056,354
6056,87,4062,270
6057,117,4089,270
6058,60,4089,249
6059,60,4017,249
6060,3,4017,258
6061,3,4044,228
6062,114,4113,228
6063,282,4113,294
6064,282,4170,294
6065,288,4170,270
6066,288,4092,303
6067,9,3987,303
6068,-231,3987,228
6069,-231,3954,228
6070,-234,3954,225
6071,-234,3954,210
6072,45,4080,210
6073,384,4080,255
6074,384,4233,303
6075,624,4233,303
6076,624,4290,366
6077,765,4248,366
6078,459,4248,300
6079,459,4140,285
6080,330,4140,285
6081,330,4119,195
6082,213,4059,195
6083,-186,4059,213
6084,-186,3855,150
6085,-594,3855,150
6086,-594,3846,165
6087,-429,4014,165
6088,69,4014,270
6089,69,4173,324
6090,312,4173,324
6091,312,4188,336
6092,315,4194,336
6093,147,4194,288
6094,147,4083,273
6095,-84,4083,273
6096,-84,4038,279
6097,-204,3981,279
6098,-195,3981,273
6099,-195,4077,273
6100,-195,4044,273
6101,-195,4044,360
6102,-150,4059,360
6103,-129,4059,300
6104,-129,4074,396
6105,-93,4089,396
6106,-93,4089,345
6107,-180,4077,345
6108,-201,4077,354
6109,-201,4086,270
6110,-177,4077,270
6111,-177,4077,381
6112,-168,4131,381
6113,-135,4131,345
6114,-135,4191,441
6115,114,4278,441
6116,48,4278,465
6117,48,4134,465
6118,-321,4134,444
6119,-321,3972,330
6120,-495,3936,330
6121,-465,3936,396
6122,-465,3990,396
6123,-216,3990,390
6124,-216,4164,519
6125,138,4380,519
6126,456,4380,672
6127,456,4389,615
6128,471,4389,615
6129,471,4236,519
6130,-237,3876,519
6131,-867,3876,345
6132,-867,3648,180
6133,-948,3648,180
6134,-948,3696,240
6135,-420,4005,240
6136,69,4005,456
6137,69,4218,456
6138,285,4218,456
6139,285,4194,471
6140,270,4122,471
6141,99,4122,369
6142,99,3981,336
6143,-117,3981,336
6144,-117,3942,303
6145,-216,3981,303
6146,-219,3981,330
6147,-219,4008,405
6148,-183,4053,405
6149,-183,4053,435
6150,-159,4074,435
6151,-111,4074,501
6152,-111,4107,390
6153,-90,4098,390
6154,-90,4098,444
6155,-120,4050,444
6156,-171,4050,456
6157,-171,4086,486
6158,-108,4038,486
6159,-108,4038,516
6160,-180,4068,516
6161,-120,4068,561
6162,-120,4098,510
6163,81,4164,510
6164,81,4164,555
6165,216,4116,555
6166,60,4116,621
6167,60,3981,510
6168,-360,3759,510
6169,-675,3759,435
6170,-675,3795,435
6171,-417,3795,411
6172,-417,3999,642
6173,3,4116,642
6174,312,4116,717
6175,312,4290,717
6176,558,4290,735
6177,558,4209,681
6178,576,4113,681
6179,312,4113,576
6180,312,4011,576
6181,-66,4011,570
6182,-66,3855,501
6183,-306,3810,501
6184,-474,3810,510
6185,-474,3831,510
6186,-267,3831,531
6187,-267,3972,591
6188,78,4059,591
6189,129,4059,576
6190,129,4068,579
6191,162,4068,579
6192,162,4041,534
6193,9,3936,534
6194,-120,3936,414
6195,-120,3921,435
6196,-144,3921,435
6197,-144,3960,441
6198,-132,4074,441
6199,-81,4074,444
6200,-81,4146,519
6201,-48,4146,519
6202,-48,4155,489
6203,-96,4107,489
6204,-57,4107,486
6205,-57,4077,489
6206,-30,4077,489
6207,-30,4017,480
6208,3,3978,480
6209,-63,3978,534
6210,-63,4050,534
6211,-57,4086,534
6212,-57,4086,525
6213,-297,4152,525
6214,-735,4152,456
6215,-735,3936,330
6216,-948,3894,330
6217,-948,3894,315
6218,-489,4179,315
6219,432,4179,330
6220,432,4572,534
6221,1059,4644,534
6222,1059,4644,564
6223,1074,4419,564
6224,579,4419,504
6225,579,4242,405
6226,156,4056,405
6227,156,4056,240
6228,-402,3753,240
6229,-1098,3753,138
6230,-1098,3576,-18
6231,-1221,3690,-18
6232,-1221,3690,99
6233,-642,3975,99
6234,-102,3975,93
6235,-102,4197,168
6236,93,4260,168
6237,138,4260,123
6238,138,4251,123
6239,39,4251,63
6240,39,4176,-21
6241,-132,4047,-21
6242,-249,4047,-108
6243,-249,4068,-108
6244,-375,4068,-102
6245,-375,4074,-138
6246,-456,4188,-138
6247,-462,4188,-243
6248,-462,4311,-243
6249,-369,4311,-171
6250,-369,4440,-252
6251,-264,4431,-252
6252,-369,4431,-267
6253,-369,4323,-402
6254,-336,4323,-402
6255,-336,4272,-453
6256,-273,4245,-453
6257,-42,4245,-378
6258,-42,4329,-318
6259,141,4329,-318
6260,141,4278,-261
6261,216,4239,-261
6262,258,4239,-243
6263,258,4143,-246
6264,309,4143,-246
6265,309,4302,-237
6266,726,4461,-237
6267,894,4461,-162
6268,894,4260,-156
6269,510,4260,-156
6270,510,4008,-258
6271,-27,3810,-258
6272,-477,3810,-261
6273,-477,3624,-252
6274,-633,3624,-252
6275,-633,3579,-183
6276,-387,3696,-183
6277,6,3696,-72
6278,6,3855,33
6279,318,3987,33
6280,318,3987,93
6281,375,4095,93
6282,390,4095,138
6283,390,4149,195
6284,408,4185,195
6285,408,4185,99
6286,426,4116,99
6287,432,4116,75
6288,432,4041,39
6289,57,3948,39
6290,57,3948,0
6291,-57,4005,0
6292,105,4005,30
6293,105,4122,54
6294,312,4227,54
6295,312,4227,99
6296,390,4251,99
6297,306,4251,105
6298,306,4200,39
6299,213,4104,39
6300,165,4104,33
6301,165,4002,33
6302,42,4002,48
6303,42,3990,-18
6304,-6,3954,-18
6305,102,3954,-63
6306,102,3969,-63
6307,231,3969,33
6308,231,3978,-6
6309,354,3939,-6
6310,450,3939,120
6311,450,3858,180
6312,495,3858,180
6313,495,3909,105
6314,495,3933,105
6315,507,3933,129
6316,507,3930,153
6317,555,3930,153
6318,555,3885,123
6319,582,3843,123
6320,741,3843,135
6321,741,3819,228
6322,900,3819,228
6323,900,3852,258
6324,882,3876,258
6325,693,3876,219
6326,693,3798,243
6327,540,3732,243
6328,540,3732,234
6329,582,3666,234
6330,633,3666,321
6331,633,3768,420
6332,639,3906,420
6333,639,3906,489
6334,588,3981,489
6335,468,3981,501
6336,468,4080,519
6337,333,4182,519
6338,333,4182,450
6339,18,4437,450
6340,-348,4437,390
6341,-348,4764,225
6342,-546,5103,225
6343,-546,5103,123
6344,-612,5526,123
6345,-357,5526,63
6346,-357,5640,-192
6347,0,5295,-192
6348,432,5295,-306
6349,432,4746,-306
6350,804,4746,-333
6351,804,4212,-222
6352,870,3921,-222
6353,630,3921,0
6354,630,3900,0
6355,375,3900,195
6356,375,3852,414
6357,-57,3711,414
6358,-480,3711,495
6359,-480,3456,645
6360,-816,3456,645
6361,-816,3513,750
6362,-948,3513,750
6363,-1173,3513,801
6364,-1173,3603,951
6365,-1251,3603,951
6366,-1251,4122,831
6367,-1236,4443,831
6368,-948,4443,570
6369,-948,4548,411
6370,-681,4548,411
6371,-681,4698,183
6372,-246,4599,183
6373,180,4599,54
6374,180,4482,165
6375,681,4482,165
6376,681,4488,369
6377,816,4419,369
6378,714,4419,657
6379,714,4416,945
6380,519,4308,945
6381,519,4308,1122
6382,270,4137,1122
6383,-60,4137,1233
6384,-60,3837,1131
6385,-210,3540,1131
6386,-210,3540,1053
6387,-165,3363,1053
6388,42,3363,897
6389,42,3324,720
6390,159,3432,720
6391,159,3432,690
6392,312,3504,690
6393,510,3504,696
6394,510,3672,600
6395,681,3795,600
6396,681,3795,585
6397,795,3816,585
6398,858,3816,561
6399,858,3894,600
6400,837,3990,600
6401,831,3990,435
6402,831,3930,435
6403,855,3930,579
6404,855,3828,660
6405,648,3846,660
6406,525,3846,675
6407,525,3888,675
6408,552,3888,777
6409,552,3867,831
6410,672,3846,831
6411,720,3846,861
6412,720,3882,942
6413,588,3882,942
6414,588,3858,897
6415,510,3807,897
6416,456,3807,906
6417,456,3774,912
6418,573,3774,912
6419,573,3948,996
6420,519,4122,996
6421,417,4122,1062
6422,417,4275,1041
6423,207,4275,1041
6424,207,4428,1083
6425,141,4554,1083
6426,-102,4554,876
6427,-102,4500,732
6428,-387,4500,732
6429,-387,4620,465
6430,-537,4758,465
6431,-696,4758,321
6432,-696,4854,108
6433,-633,4809,108
6434,-633,4809,84
6435,-378,4620,84
6436,-81,4620,63
6437,-81,4491,54
6438,129,4500,54
6439,129,4500,135
6440,114,4503,135
6441,69,4503,150
6442,69,4341,18
6443,69,4065,18
6444,69,4065,30
6445,-45,3804,30
6446,-120,3804,-168
6447,-120,3594,-192
6448,-189,3432,-192
6449,-189,3432,-201
6450,-300,3360,-201
6451,-474,3360,-342
6452,-474,3366,-417
6453,-498,3321,-417
6454,-498,3321,-429
6455,-432,3390,-429
6456,-225,3390,-492
6457,-225,3432,-537
6458,-195,3669,-537
6459,-219,3669,-624
6460,-219,3807,-624
6461,-84,3807,-612
6462,-84,3993,-684
6463,108,4215,-684
6464,414,4215,-690
6465,414,4386,-690
6466,621,4386,-564
6467,621,4683,-609
6468,708,4863,-609
6469,630,4863,-513
6470,630,4875,-513
6471,363,4875,-612
6472,363,4785,-579
6473,-9,4554,-579
6474,-336,4554,-573
6475,-336,4320,-594
6476,-501,4320,-594
6477,-501,4263,-468
6478,-603,4206,-468
6479,-594,4206,-459
6480,-594,4131,-384
6481,-513,4131,-384
6482,-513,4110,-321
6483,-477,4143,-321
6484,-540,4143,-261
6485,-540,4272,-231
6486,-558,4272,-231
6487,-558,4278,-243
6488,-444,4227,-243
6489,-219,4227,-273
6490,-219,4281,-207
6491,-300,4281,-207
6492,-300,4431,-303
6493,-474,4350,-303
6494,-507,4350,-291
6495,-507,4329,-171
6496,-423,4329,-171
6497,-423,4353,-201
6498,-441,4365,-201
6499,-483,4365,-63
6500,-483,4329,-42
6501,-594,4329,-42
6502,-594,4152,39
6503,-513,4089,39
6504,-342,4089,69
6505,-342,4059,78
6506,-270,4257,78
6507,-270,4257,138
6508,-249,4278,138
6509,-300,4278,114
6510,-300,4395,108
6511,-252,4410,108
6512,-252,4410,123
6513,-231,4464,123
6514,-240,4464,144
6515,-240,4491,150
6516,-309,4521,150
6517,-309,4521,168
6518,-351,4491,168
6519,-204,4491,213
6520,-204,4494,258
6521,-171,4461,258
6522,-171,4461,249
6523,-318,4515,249
