sequence,AccelerometerX,AccelerometerY,AccelerometerZ
0,1482,159,3750
1,1644,3,3750
2,1644,3,3774
3,1611,219,3774
4,1665,219,3639
5,1665,174,3819
6,999,-42,3819
7,999,-42,3831
8,1800,156,3831
9,1590,156,3861
10,1590,189,3915
11,1785,132,3915
12,1785,132,3927
13,1716,492,3927
14,1623,492,4503
15,1623,846,4476
16,1662,846,4476
17,1662,1956,4908
18,1575,1647,4908
19,1074,1647,4848
20,1074,1296,4974
21,1407,1296,4974
22,1407,1167,4935
23,1371,855,4935
24,1299,855,4773
25,1299,264,4524
26,1293,264,4524
27,1293,210,4482
28,1320,180,4482
29,1476,180,4578
30,1476,-87,4494
31,1587,-87,4494
32,1587,-111,4569
33,1398,-39,4569
34,1368,-39,4644
35,1368,-150,4644
36,1596,-150,4608
37,1596,-219,4680
38,2046,-363,4680
39,2034,-363,4680
40,2034,-435,4680
41,2001,-435,4512
42,2001,-81,4665
43,2517,-18,4665
44,2760,-18,4743
45,2760,60,4743
46,2871,60,4677
47,2871,-234,4452
48,2817,-495,4452
49,2817,-495,4116
50,2835,-423,4116
51,3015,-423,4026
52,3015,-48,3945
53,3195,27,3945
54,3195,27,3609
55,3195,-165,3609
56,2919,-165,3198
57,2919,-525,2808
58,3006,-363,2808
59,3006,-363,2553
60,3324,147,2553
61,3450,147,2406
62,3450,459,2115
63,3447,60,2115
64,3447,60,1584
65,3297,-339,1584
66,3492,-339,1233
67,3492,-528,843
68,3474,-483,843
69,3474,-483,630
70,3693,273,630
71,4017,273,516
72,4017,495,240
73,4134,495,240
74,4134,198,-162
75,4173,-126,-162
76,4218,-126,-654
77,4218,-546,-1221
78,4191,-546,-1221
79,4191,-429,-1401
80,4089,-87,-1401
81,3825,-87,-1356
82,3825,318,-1326
83,3810,318,-1326
84,3810,114,-1236
85,3990,-240,-1236
86,4065,-240,-1275
87,4065,-507,-1251
88,3813,-507,-1251
89,3813,-651,-1230
90,3426,-375,-1230
91,3126,-375,-978
92,3126,-102,-804
93,2565,-102,-804
94,2565,-315,-945
95,2427,-522,-945
96,2607,-522,-1131
97,2607,-621,-1131
98,2766,-621,-1350
99,2766,-594,-1527
100,2862,-24,-1527
101,2721,-24,-1446
102,2721,147,-1446
103,2622,147,-1395
104,2622,-102,-1611
105,2478,-318,-1611
106,2478,-318,-1791
107,2289,-381,-1791
108,1863,-381,-2067
109,1863,108,-2163
110,1875,732,-2163
111,1875,732,-2253
112,2541,798,-2253
113,3282,798,-2478
114,3282,420,-2865
115,3498,72,-2865
116,3498,72,-3090
117,3069,-303,-3090
118,1989,-303,-3150
119,1989,-96,-3132
120,1086,471,-3132
121,1086,471,-3231
122,258,399,-3231
123,588,399,-3312
124,588,-150,-3621
125,1077,-150,-3621
126,1077,-669,-3807
127,1311,-660,-3807
128,1104,-660,-3669
129,1104,-447,-3627
130,825,-447,-3627
131,825,-147,-3507
132,519,-345,-3507
133,312,-345,-3417
134,312,-429,-3642
135,573,-429,-3642
136,573,-741,-3648
137,732,-342,-3648
138,399,-342,-3591
139,399,-282,-3678
140,252,-282,-3678
141,252,-525,-4014
142,459,-780,-4014
143,645,-780,-4080
144,645,-402,-4218
145,588,-402,-4218
146,588,-192,-4350
147,570,-381,-4350
148,915,-381,-4455
149,915,-291,-4455
150,1131,-291,-4596
151,1131,-348,-4872
152,1092,-441,-4872
153,696,-441,-4872
154,696,-558,-4872
155,534,-558,-4776
156,534,-231,-4575
157,729,-183,-4575
158,786,-183,-4461
159,786,-165,-4461
160,981,-165,-4629
161,981,-153,-4650
162,678,-582,-4650
163,678,-582,-4446
164,729,-144,-4446
165,537,-144,-4140
166,537,153,-4179
167,405,-90,-4179
168,405,-90,-4080
169,468,-195,-4080
170,579,-195,-3834
171,579,-45,-3768
172,480,-102,-3768
173,480,-102,-3708
174,570,-189,-3708
175,816,-189,-3561
176,816,72,-3648
177,1017,78,-3648
178,1017,78,-3774
179,954,-114,-3774
180,1368,-114,-3837
181,1368,-171,-3873
182,1560,-39,-3873
183,1560,-39,-3978
184,1707,15,-3978
185,1353,15,-3960
186,1353,-111,-4053
187,1221,15,-4053
188,1221,15,-4173
189,1209,15,-4173
190,1158,15,-4110
191,1158,-174,-4083
192,1131,-174,-4083
193,1131,-48,-4020
194,924,96,-4020
195,717,96,-4080
196,717,12,-4008
197,654,12,-4008
198,654,6,-3984
199,687,-9,-3984
200,765,-9,-3948
201,765,132,-3900
202,879,132,-3900
203,879,138,-3903
204,930,108,-3903
205,984,108,-4038
206,984,162,-3948
207,1059,162,-3948
208,1059,123,-4074
209,1194,108,-4074
210,1170,108,-4140
211,1170,156,-4179
212,1032,156,-4179
213,1032,249,-4119
214,1152,69,-4119
215,1191,69,-4065
216,1191,159,-4065
217,948,159,-4023
218,948,123,-4074
219,900,36,-4074
220,1017,36,-4035
221,1017,177,-4035
222,1122,177,-3975
223,1122,213,-3978
224,1044,132,-3978
225,1056,132,-3969
226,1056,120,-3969
227,1086,120,-3948
228,1086,24,-3903
229,1038,87,-3903
230,975,87,-3885
231,975,261,-3885
232,972,261,-3858
233,972,105,-3918
234,966,156,-3918
235,966,156,-3945
236,1071,156,-3945
237,1137,156,-4068
238,1137,60,-4095
239,1017,42,-4095
240,1017,42,-4134
241,1032,192,-4134
242,999,192,-4110
243,999,234,-4083
244,924,174,-4083
245,924,174,-4029
246,861,174,-4029
247,924,174,-4065
248,924,192,-4059
249,1050,228,-4059
250,1050,228,-4035
251,1104,204,-4035
252,1023,204,-4050
253,1023,195,-4005
254,1026,195,-4005
255,1026,264,-3993
256,963,126,-3993
257,1050,126,-3984
258,1050,147,-3930
259,1095,147,-3930
260,1095,261,-3864
261,1110,255,-3864
262,1074,255,-3837
263,1074,231,-3864
264,1035,231,-3864
265,1035,186,-3900
266,999,129,-3900
267,1086,129,-3894
268,1086,159,-4005
269,1107,159,-4005
270,1107,171,-3918
271,1074,198,-3918
272,1041,198,-3960
273,1041,234,-3900
274,993,234,-3900
275,993,207,-3975
276,1005,186,-3975
277,954,186,-3939
278,954,189,-3939
279,951,189,-3918
280,951,240,-3885
281,849,258,-3885
282,915,258,-3975
283,915,309,-3975
284,900,309,-4035
285,900,279,-3954
286,846,288,-3954
287,981,288,-3999
288,981,249,-3999
289,1041,249,-4080
290,1041,279,-3945
291,1089,297,-3945
292,1089,297,-3963
293,1017,279,-3963
294,1059,279,-4029
295,1059,228,-3963
296,1113,264,-3963
297,1113,264,-3978
298,1263,321,-3978
299,1335,321,-3888
300,1335,393,-3819
301,1551,324,-3819
302,1551,324,-3933
303,1560,255,-3933
304,1377,255,-3933
305,1377,240,-3885
306,1368,249,-3885
307,1368,249,-3852
308,1446,366,-3852
309,1548,366,-3819
310,1548,318,-3888
311,1401,351,-3888
312,1401,351,-3885
313,1308,369,-3885
314,1260,369,-3945
315,1260,267,-4065
316,1350,267,-4065
317,1350,345,-3993
318,1386,330,-3993
319,1251,330,-4098
320,1251,276,-4050
321,1131,276,-4050
322,1131,294,-4074
323,1104,339,-4074
324,1170,339,-4068
325,1170,333,-4035
326,1302,333,-4035
327,1302,342,-4020
328,1359,297,-4020
329,1299,297,-3945
330,1299,333,-3930
331,1260,333,-3930
332,1260,363,-3879
333,1176,342,-3879
334,1302,342,-3945
335,1302,378,-3945
336,1233,378,-3933
337,1233,351,-3903
338,1176,306,-3903
339,1146,306,-3945
340,1146,264,-3945
341,1182,264,-3930
342,1182,309,-3999
343,1242,300,-3999
344,1143,300,-3939
345,1143,291,-3939
346,1038,291,-3939
347,1038,342,-3864
348,1083,339,-3864
349,1083,339,-3903
350,1179,306,-3903
351,1194,306,-3903
352,1194,315,-3903
353,1188,285,-3903
354,1188,285,-3945
355,1122,243,-3945
356,1197,243,-3873
357,1197,318,-3762
358,1233,333,-3762
359,1233,333,-3813
360,1257,351,-3813
361,1242,351,-3864
362,1242,381,-3774
363,1383,381,-3774
364,1383,369,-3759
365,1263,372,-3759
366,1248,372,-3864
367,1248,399,-3777
368,1224,399,-3777
369,1224,369,-3798
370,1398,345,-3798
371,1482,345,-3804
372,1482,339,-3903
373,1371,339,-3903
374,1371,300,-3975
375,1233,345,-3975
376,1293,345,-3873
377,1293,387,-3939
378,1308,387,-3939
379,1308,363,-3978
380,1362,333,-3978
381,1224,333,-4044
382,1224,318,-3954
383,1224,318,-3954
384,1224,306,-3858
385,1176,396,-3858
386,1257,396,-3879
387,1257,465,-3879
388,1395,465,-3894
389,1395,483,-3885
390,1473,384,-3885
391,1452,384,-3888
392,1452,459,-3888
393,1329,459,-3762
394,1329,582,-3774
395,1284,513,-3774
396,1284,513,-3864
397,1329,390,-3864
398,1293,390,-3894
399,1293,459,-3924
400,1284,372,-3924
401,1284,372,-3960
402,1260,417,-3960
403,1230,417,-3948
404,1230,495,-3903
405,1257,420,-3903
406,1257,420,-3984
407,1158,459,-3984
408,1182,459,-4005
409,1182,414,-3978
410,1194,408,-3978
411,1194,408,-3978
412,1200,444,-3978
413,1227,444,-4050
414,1227,519,-4098
415,1137,519,-4098
416,1137,504,-4095
417,1197,468,-4095
418,1314,468,-4200
419,1314,423,-4179
420,1320,423,-4179
421,1320,576,-4173
422,1221,411,-4173
423,945,411,-4149
424,945,504,-3930
425,1014,504,-3930
426,1014,648,-3885
427,1206,600,-3885
428,1164,600,-3900
429,1164,414,-3900
430,1035,414,-3954
431,1035,504,-3948
432,1041,465,-3948
433,1095,465,-3984
434,1095,279,-3984
435,1104,279,-3999
436,1104,447,-3864
437,975,531,-3864
438,879,531,-3807
439,879,330,-3807
440,711,330,-3843
441,711,363,-3852
442,765,402,-3852
443,765,402,-3939
444,957,444,-3939
445,888,444,-3954
446,888,411,-3903
447,741,411,-3903
448,741,411,-4005
449,798,561,-4005
450,843,561,-3963
451,843,534,-4023
452,1089,438,-4023
453,1089,438,-4008
454,975,375,-4008
455,969,375,-3930
456,969,615,-3813
457,1104,645,-3813
458,1104,645,-3762
459,1179,321,-3762
460,1044,321,-3909
461,1044,378,-3768
462,1200,378,-3768
463,1200,348,-3828
464,1410,465,-3828
465,1479,465,-3900
466,1479,453,-3822
467,1404,453,-3822
468,1404,462,-3789
469,1092,492,-3789
470,1140,492,-3789
471,1140,315,-3933
472,1023,315,-3933
473,1023,462,-3939
474,483,492,-3939
475,171,492,-3822
476,171,561,-4005
477,348,561,-4005
478,348,498,-4098
479,954,411,-4098
480,1329,411,-4185
481,1329,576,-4185
482,1467,576,-4239
483,1467,687,-4221
484,1473,534,-4221
485,1380,534,-4260
486,1380,492,-4260
487,1263,492,-4170
488,1263,639,-4059
489,1206,771,-4059
490,1206,771,-4029
491,1473,699,-4029
492,1620,699,-4023
493,1620,714,-3888
494,1647,657,-3888
495,1647,657,-3843
496,1533,567,-3843
497,1155,567,-3732
498,1155,567,-3699
499,957,504,-3699
500,957,504,-3618
501,1023,597,-3618
502,1152,597,-3567
503,1152,552,-3633
504,1209,606,-3633
505,1209,606,-3624
506,1107,645,-3624
507,1032,645,-3558
508,1032,648,-3627
509,1044,702,-3627
510,1044,702,-3714
511,1221,567,-3714
512,1314,567,-3834
513,1314,582,-3852
514,1233,624,-3852
515,1233,624,-3933
516,1092,633,-3933
517,1089,633,-4065
518,1089,630,-4155
519,1239,495,-4155
520,1239,495,-4209
521,1293,579,-4209
522,1302,579,-4038
523,1302,804,-3903
524,1263,804,-3903
525,1263,717,-4008
526,1110,591,-4008
527,954,591,-4134
528,954,486,-4098
529,948,486,-4098
530,948,567,-4158
531,987,633,-4158
532,1062,633,-4113
533,1062,795,-4044
534,1101,795,-4044
535,1101,687,-4074
536,1140,675,-4074
537,1188,675,-3933
538,1188,624,-3969
539,1398,624,-3969
540,1398,717,-3993
541,1428,801,-3993
542,1446,801,-3870
543,1446,696,-3993
544,1398,696,-3993
545,1398,630,-3984
546,1557,666,-3984
547,1515,666,-4110
548,1515,783,-4014
549,1497,783,-4014
550,1497,726,-3978
551,1398,648,-3978
552,1290,648,-3933
553,1290,630,-3963
554,1320,630,-3963
555,1320,597,-3903
556,1257,687,-3903
557,1089,687,-3879
558,1089,594,-3879
559,924,594,-3798
560,924,549,-3828
561,888,648,-3828
562,957,648,-3819
563,957,705,-3819
564,1137,705,-3744
565,1137,705,-3768
566,1161,642,-3768
567,1074,642,-3744
568,1074,576,-3744
569,1083,576,-3789
570,1083,462,-3885
571,1032,528,-3885
572,1035,528,-3807
573,1035,540,-3807
574,912,540,-3804
575,912,750,-3744
576,888,579,-3744
577,888,579,-3834
578,1053,573,-3834
579,1314,573,-3777
580,1314,453,-3807
581,1437,399,-3807
582,1437,399,-3804
583,1359,504,-3804
584,1365,504,-3708
585,1365,426,-3729
586,1284,294,-3729
587,1284,294,-3678
588,1281,468,-3678
589,1206,468,-3642
590,1206,612,-3633
591,1311,675,-3633
592,1311,675,-3612
593,1290,765,-3612
594,1275,765,-3612
595,1275,945,-3678
596,1197,945,-3678
597,1197,1035,-3759
598,1386,876,-3759
599,1548,876,-3879
600,1548,732,-4140
601,1728,732,-4140
602,1728,756,-4266
603,1755,666,-4266
604,1704,666,-4326
605,1704,576,-4404
606,1620,576,-4404
607,1620,513,-4344
608,1536,696,-4344
609,1635,696,-4140
610,1635,783,-4005
611,1692,783,-4005
612,1692,774,-3885
613,1644,852,-3885
614,1641,852,-3762
615,1641,744,-3729
616,1662,744,-3729
617,1662,777,-3738
618,1629,699,-3738
619,1452,699,-3708
620,1452,639,-3708
621,1470,639,-3729
622,1470,678,-3582
623,1575,741,-3582
624,1617,741,-3579
625,1617,675,-3579
626,1452,675,-3564
627,1452,642,-3501
628,1353,675,-3501
629,1428,675,-3609
630,1428,627,-3609
631,1479,627,-3672
632,1479,606,-3717
633,1428,594,-3717
634,1359,594,-3804
635,1359,597,-3804
636,1431,597,-3843
637,1431,681,-3822
638,1452,639,-3822
639,1380,639,-3978
640,1380,603,-3978
641,1332,603,-3984
642,1332,651,-3930
643,1347,633,-3930
644,1311,633,-3939
645,1311,687,-3939
646,1353,687,-3963
647,1353,621,-3879
648,1416,690,-3879
649,1416,690,-3834
650,1500,702,-3834
651,1521,702,-3759
652,1521,600,-3888
653,1497,594,-3888
654,1497,594,-3873
655,1524,654,-3873
656,1527,654,-3828
657,1527,726,-3732
658,1539,651,-3732
659,1539,651,-3792
660,1524,597,-3792
661,1395,597,-3909
662,1395,618,-3834
663,1446,654,-3834
664,1446,654,-3852
665,1488,630,-3852
666,1362,630,-3888
667,1362,651,-3813
668,1302,603,-3813
669,1302,603,-3759
670,1326,627,-3759
671,1434,627,-3783
672,1434,597,-3807
673,1398,666,-3807
674,1398,666,-3792
675,1377,636,-3792
676,1395,636,-3834
677,1395,618,-3822
678,1395,618,-3822
679,1395,621,-3888
680,1428,627,-3888
681,1350,627,-3804
682,1350,633,-3822
683,1314,633,-3822
684,1314,615,-3858
685,1365,594,-3858
686,1389,594,-3798
687,1389,651,-3888
688,1371,651,-3888
689,1371,579,-3885
690,1350,561,-3885
691,1410,561,-3819
692,1410,633,-3807
693,1485,633,-3807
694,1485,657,-3828
695,1515,603,-3828
696,1467,603,-3852
697,1467,585,-3807
698,1515,585,-3807
699,1515,633,-3798
700,1575,591,-3798
701,1527,591,-3789
702,1527,615,-3747
703,1473,615,-3747
704,1473,642,-3798
705,1440,621,-3798
706,1428,621,-3759
707,1428,600,-3759
708,1413,600,-3834
709,1413,612,-3858
710,1383,600,-3858
711,1404,600,-3828
712,1404,591,-3828
713,1368,591,-3873
714,1368,591,-3828
715,1398,630,-3828
716,1410,630,-3852
717,1410,615,-3852
718,1353,615,-3849
719,1353,624,-3819
720,1338,591,-3819
721,1338,591,-3828
722,1398,585,-3828
723,1350,585,-3843
724,1350,624,-3843
725,1320,633,-3843
726,1320,633,-3834
727,1365,582,-3834
728,1386,582,-3864
729,1386,573,-3894
730,1365,603,-3894
731,1365,603,-3873
732,1347,588,-3873
733,1347,588,-3903
734,1347,528,-3819
735,1368,624,-3819
736,1368,624,-3804
737,1317,618,-3804
738,1320,618,-3768
739,1320,582,-3834
740,1362,627,-3834
741,1362,627,-3819
742,1299,576,-3819
743,1317,576,-3798
744,1317,537,-3804
745,1317,672,-3804
746,1317,672,-3774
747,1293,654,-3774
748,1242,654,-3672
749,1242,669,-3789
750,1266,669,-3789
751,1266,627,-3804
752,1335,648,-3804
753,1338,648,-3789
754,1338,651,-3753
755,1281,651,-3753
756,1281,630,-3723
757,1338,636,-3723
758,1428,636,-3708
759,1428,708,-3678
760,1434,708,-3678
761,1434,645,-3717
762,1398,603,-3717
763,1350,603,-3783
764,1350,606,-3774
765,1413,606,-3774
766,1413,693,-3822
767,1521,621,-3822
768,1542,621,-3990
769,1542,603,-3933
770,1509,603,-3933
771,1509,633,-3948
772,1503,636,-3948
773,1422,636,-4014
774,1422,585,-3963
775,1371,585,-3963
776,1371,648,-3888
777,1422,666,-3888
778,1347,666,-3834
779,1347,648,-3834
780,1329,648,-3945
781,1329,726,-3879
782,1383,810,-3879
783,1491,810,-3768
784,1491,840,-3768
785,1458,840,-3888
786,1458,807,-3777
787,1500,828,-3777
788,1524,828,-3774
789,1524,798,-3774
790,1587,798,-3807
791,1587,819,-3849
792,1575,831,-3849
793,1575,831,-3807
794,1551,816,-3807
795,1569,816,-3807
796,1569,822,-3864
797,1566,747,-3864
798,1566,747,-3894
799,1572,750,-3894
800,1503,750,-3843
801,1503,738,-3960
802,1482,723,-3960
803,1482,723,-3837
804,1464,777,-3837
805,1437,777,-3843
806,1437,747,-3792
807,1413,693,-3792
808,1413,693,-3852
809,1413,690,-3852
810,1395,690,-3807
811,1395,696,-3843
812,1470,732,-3843
813,1470,732,-3798
814,1488,747,-3798
815,1440,747,-3774
816,1440,732,-3777
817,1464,732,-3777
818,1464,708,-3789
819,1449,741,-3789
820,1434,741,-3678
821,1434,744,-3702
822,1500,744,-3702
823,1500,738,-3732
824,1431,702,-3732
825,1326,702,-3744
826,1326,747,-3708
827,1449,747,-3708
828,1449,732,-3714
829,1491,729,-3714
830,1479,729,-3777
831,1479,720,-3789
832,1440,720,-3789
833,1440,726,-3744
834,1446,705,-3744
835,1503,705,-3753
836,1503,690,-3819
837,1422,690,-3819
838,1422,651,-3792
839,1404,723,-3792
840,1506,723,-3699
841,1506,816,-3768
842,1506,816,-3768
843,1506,765,-3762
844,1470,720,-3762
845,1398,720,-3738
846,1398,756,-3738
847,1428,756,-3813
848,1428,786,-3834
849,1416,720,-3834
850,1440,720,-3837
851,1440,765,-3837
852,1428,765,-3822
853,1428,798,-3819
854,1479,765,-3819
855,1473,765,-3828
856,1473,765,-3828
857,1434,765,-3834
858,1434,747,-3753
859,1488,810,-3753
860,1506,810,-3738
861,1506,834,-3738
862,1506,834,-3687
863,1506,783,-3708
864,1539,786,-3708
865,1539,786,-3642
866,1554,795,-3642
867,1560,795,-3603
868,1560,768,-3609
869,1479,795,-3609
870,1479,795,-3573
871,1569,897,-3573
872,1707,897,-3723
873,1707,771,-3753
874,1641,744,-3753
875,1641,744,-3822
876,1602,801,-3822
877,1680,801,-3873
878,1680,804,-3804
879,1764,774,-3804
880,1764,774,-3843
881,1623,798,-3843
882,1644,798,-3789
883,1644,849,-3762
884,1710,834,-3762
885,1710,834,-3798
886,1728,756,-3798
887,1605,756,-3843
888,1605,786,-3813
889,1611,843,-3813
890,1611,843,-3834
891,1671,756,-3834
892,1641,756,-3789
893,1641,768,-3804
894,1590,834,-3804
895,1590,834,-3762
896,1551,804,-3762
897,1533,804,-3702
898,1533,798,-3708
899,1518,798,-3708
900,1518,759,-3747
901,1527,738,-3747
902,1533,738,-3699
903,1533,768,-3762
904,1500,768,-3762
905,1500,768,-3702
906,1500,747,-3702
907,1533,747,-3759
908,1533,753,-3633
909,1467,753,-3633
910,1467,780,-3663
911,1428,744,-3663
912,1464,744,-3708
913,1464,741,-3684
914,1497,741,-3684
915,1497,759,-3657
916,1488,741,-3657
917,1434,741,-3693
918,1434,765,-3684
919,1353,765,-3684
920,1353,708,-3618
921,1359,789,-3618
922,1458,789,-3612
923,1458,810,-3654
924,1527,810,-3654
925,1527,735,-3747
926,1434,696,-3747
927,1488,696,-3828
928,1488,738,-3774
929,1572,738,-3774
930,1572,834,-3789
931,1587,774,-3789
932,1548,774,-3864
933,1548,801,-3864
934,1497,801,-3792
935,1497,825,-3852
936,1497,801,-3852
937,1527,801,-3849
938,1527,804,-3849
939,1539,804,-3864
940,1539,786,-3849
941,1521,792,-3849
942,1473,792,-3888
943,1473,825,-3888
944,1506,825,-3834
945,1506,819,-3804
946,1509,783,-3804
947,1509,783,-3819
948,1488,816,-3819
949,1440,816,-3762
950,1440,858,-3708
951,1431,810,-3708
952,1431,810,-3672
953,1419,786,-3672
954,1488,786,-3714
955,1488,894,-3693
956,1500,909,-3693
957,1500,909,-3714
958,1521,804,-3714
959,1401,804,-3759
960,1401,765,-3759
961,1464,867,-3759
962,1464,867,-3768
963,1671,918,-3768
964,1671,918,-3747
965,1671,825,-3759
966,1578,810,-3759
967,1578,810,-3834
968,1524,861,-3834
969,1593,861,-3762
970,1593,873,-3807
971,1608,849,-3807
972,1608,849,-3813
973,1566,786,-3813
974,1611,786,-3879
975,1611,876,-3837
976,1572,876,-3837
977,1572,816,-3798
978,1464,837,-3798
979,1542,837,-3894
980,1542,825,-3837
981,1635,825,-3837
982,1635,849,-3819
983,1620,843,-3819
984,1620,843,-3843
985,1620,837,-3792
986,1533,837,-3792
987,1533,771,-3753
988,1584,846,-3753
989,1626,846,-3747
990,1626,891,-3669
991,1620,891,-3669
992,1620,840,-3708
993,1464,786,-3708
994,1419,786,-3768
995,1419,792,-3807
996,1446,792,-3807
997,1446,846,-3783
998,1536,861,-3783
999,1449,861,-3768
1000,1449,732,-3768
1001,1422,732,-3768
1002,1422,735,-3768
1003,1479,798,-3768
1004,1509,798,-3744
1005,1509,777,-3768
1006,1542,777,-3768
1007,1542,804,-3693
1008,1536,753,-3693
1009,1491,753,-3729
1010,1491,780,-3729
1011,1518,780,-3714
1012,1518,702,-3699
1013,1509,747,-3699
1014,1548,747,-3753
1015,1548,819,-3753
1016,1659,819,-3693
1017,1659,753,-3729
1018,1596,732,-3729
1019,1536,732,-3753
1020,1536,714,-3753
1021,1536,714,-3783
1022,1536,777,-3687
1023,1506,750,-3687
1024,1506,750,-3693
1025,1446,651,-3693
1026,1335,651,-3738
1027,1335,801,-3792
1028,1455,798,-3792
1029,1455,798,-3723
1030,1536,780,-3723
1031,1536,780,-3789
1032,1536,741,-3762
1033,1452,753,-3762
1034,1452,753,-3759
1035,1521,783,-3759
1036,1560,783,-3759
1037,1560,747,-3768
1038,1641,783,-3768
1039,1641,783,-3747
1040,1662,735,-3747
1041,1605,735,-3885
1042,1605,717,-3684
1043,1440,726,-3684
1044,1440,726,-3702
1045,1509,741,-3702
1046,1542,741,-3717
1047,1542,744,-3747
1048,1659,786,-3747
1049,1659,786,-3783
1050,1608,783,-3783
1051,1623,783,-3729
1052,1623,771,-3669
1053,1671,771,-3669
1054,1671,801,-3693
1055,1659,792,-3693
1056,1671,792,-3762
1057,1671,756,-3738
1058,1710,756,-3738
1059,1710,792,-3762
1060,1740,786,-3762
1061,1782,786,-3747
1062,1782,819,-3804
1063,1776,819,-3804
1064,1776,747,-3759
1065,1662,822,-3759
1066,1593,822,-3717
1067,1593,783,-3759
1068,1602,783,-3759
1069,1602,780,-3759
1070,1620,720,-3759
1071,1596,720,-3732
1072,1596,777,-3642
1073,1626,777,-3642
1074,1626,792,-3702
1075,1629,768,-3702
1076,1572,768,-3738
1077,1572,771,-3738
1078,1584,771,-3669
1079,1584,702,-3747
1080,1557,759,-3747
1081,1569,759,-3648
1082,1569,744,-3648
1083,1605,744,-3714
1084,1605,753,-3597
1085,1605,717,-3597
1086,1515,717,-3612
1087,1515,753,-3612
1088,1428,753,-3633
1089,1428,717,-3648
1090,1533,810,-3648
1091,1698,810,-3714
1092,1698,786,-3714
1093,1761,786,-3699
1094,1761,789,-3672
1095,1605,819,-3672
1096,1605,819,-3663
1097,1497,798,-3663
1098,1626,798,-3687
1099,1626,753,-3744
1100,1710,729,-3744
1101,1710,729,-3717
1102,1590,753,-3717
1103,1572,753,-3717
1104,1572,765,-3789
1105,1470,741,-3789
1106,1470,741,-3852
1107,1551,768,-3852
1108,1578,768,-3822
1109,1578,735,-3753
1110,1635,804,-3753
1111,1635,804,-3768
1112,1629,792,-3768
1113,1644,792,-3669
1114,1644,792,-3693
1115,1608,780,-3693
1116,1608,780,-3768
1117,1665,798,-3768
1118,1611,798,-3753
1119,1611,738,-3804
1120,1602,774,-3804
1121,1602,774,-3678
1122,1608,777,-3678
1123,1557,777,-3624
1124,1557,795,-3672
1125,1488,789,-3672
1126,1488,789,-3639
1127,1590,771,-3639
1128,1635,771,-3699
1129,1635,810,-3678
1130,1590,810,-3678
1131,1590,777,-3768
1132,1515,753,-3768
1133,1575,753,-3762
1134,1575,798,-3708
1135,1620,798,-3708
1136,1620,819,-3783
1137,1608,747,-3783
1138,1551,747,-3783
1139,1551,774,-3822
1140,1635,774,-3822
1141,1635,804,-3717
1142,1707,822,-3717
1143,1731,822,-3744
1144,1731,840,-3789
1145,1647,840,-3789
1146,1647,759,-3759
1147,1500,768,-3759
1148,1488,768,-3852
1149,1488,819,-3858
1150,1524,819,-3858
1151,1524,795,-3879
1152,1548,759,-3879
1153,1527,759,-3885
1154,1527,792,-3789
1155,1473,792,-3789
1156,1473,810,-3807
1157,1473,765,-3807
1158,1458,765,-3813
1159,1458,774,-3813
1160,1437,774,-3819
1161,1437,831,-3699
1162,1506,825,-3699
1163,1542,825,-3717
1164,1542,807,-3717
1165,1542,807,-3792
1166,1542,825,-3753
1167,1539,789,-3753
1168,1551,789,-3783
1169,1551,816,-3783
1170,1686,816,-3804
1171,1686,825,-3759
1172,1596,753,-3759
1173,1596,753,-3699
1174,1662,792,-3699
1175,1647,792,-3723
1176,1647,792,-3717
1177,1605,831,-3717
1178,1605,831,-3774
1179,1590,750,-3774
1180,1641,750,-3759
1181,1641,744,-3684
1182,1584,789,-3684
1183,1584,789,-3717
1184,1584,747,-3717
1185,1575,747,-3723
1186,1575,735,-3699
1187,1638,777,-3699
1188,1638,777,-3678
1189,1644,777,-3678
1190,1644,777,-3687
1191,1644,741,-3717
1192,1602,726,-3717
1193,1602,726,-3732
1194,1587,717,-3732
1195,1710,717,-3702
1196,1710,792,-3702
1197,1707,792,-3702
1198,1707,729,-3678
1199,1617,717,-3678
1200,1593,717,-3744
1201,1593,765,-3747
1202,1677,765,-3747
1203,1677,759,-3753
1204,1671,675,-3753
1205,1554,675,-3777
1206,1554,717,-3783
1207,1542,717,-3783
1208,1542,759,-3738
1209,1539,747,-3738
1210,1518,747,-3738
1211,1518,717,-3744
1212,1419,717,-3744
1213,1419,750,-3729
1214,1557,750,-3729
1215,1560,750,-3723
1216,1560,678,-3747
1217,1557,678,-3747
1218,1557,723,-3783
1219,1569,720,-3783
1220,1626,720,-3744
1221,1626,687,-3738
1222,1539,687,-3738
1223,1539,723,-3699
1224,1524,738,-3699
1225,1626,738,-3723
1226,1626,741,-3672
1227,1647,741,-3672
1228,1647,717,-3684
1229,1557,735,-3684
1230,1539,735,-3633
1231,1539,744,-3633
1232,1533,744,-3699
1233,1533,723,-3747
1234,1578,681,-3747
1235,1554,681,-3729
1236,1554,681,-3729
1237,1584,681,-3753
1238,1584,720,-3732
1239,1548,678,-3732
1240,1524,678,-3747
1241,1524,699,-3747
1242,1416,699,-3843
1243,1416,648,-3774
1244,1491,693,-3774
1245,1491,693,-3804
1246,1470,741,-3804
1247,1389,741,-3789
1248,1389,747,-3813
1249,1296,765,-3813
1250,1296,765,-3900
1251,1353,768,-3900
1252,1431,768,-3888
1253,1431,792,-3945
1254,1368,783,-3945
1255,1368,783,-3915
1256,1395,738,-3915
1257,1434,738,-3960
1258,1434,840,-3945
1259,1554,831,-3945
1260,1554,831,-4005
1261,1644,819,-4005
1262,1698,819,-3963
1263,1698,831,-3924
1264,1626,858,-3924
1265,1626,858,-3885
1266,1593,627,-3885
1267,1671,627,-3999
1268,1671,600,-3993
1269,1833,624,-3993
1270,1833,624,-3939
1271,1983,612,-3939
1272,1878,612,-3984
1273,1878,510,-3939
1274,1728,510,-3939
1275,1728,444,-3993
1276,1659,486,-3993
1277,1641,486,-3948
1278,1641,489,-3828
1279,1596,489,-3828
1280,1596,519,-3714
1281,1644,597,-3714
1282,1533,597,-3618
1283,1533,639,-3612
1284,1329,639,-3612
1285,1329,513,-3693
1286,1176,474,-3693
1287,1260,474,-3702
1288,1260,420,-3678
1289,1368,420,-3678
1290,1368,519,-3633
1291,1416,531,-3633
1292,1188,531,-3669
1293,1188,378,-3729
1294,993,378,-3729
1295,993,279,-3639
1296,885,240,-3639
1297,747,240,-3663
1298,747,528,-3900
1299,888,528,-3900
1300,888,312,-3909
1301,852,285,-3909
1302,855,285,-3993
1303,855,255,-4014
1304,915,255,-4014
1305,915,132,-4206
1306,1260,408,-4206
1307,1464,408,-4059
1308,1464,525,-3864
1309,1239,525,-3864
1310,1239,390,-3894
1311,903,105,-3894
1312,660,105,-3813
1313,660,264,-3813
1314,783,264,-3864
1315,783,231,-3999
1316,912,222,-3999
1317,627,222,-3852
1318,627,204,-3852
1319,489,204,-3990
1320,489,138,-3900
1321,540,-339,-3900
1322,540,-339,-3477
1323,1056,-201,-3477
1324,456,-201,-2901
1325,456,1407,-3201
1326,-582,945,-3201
1327,-582,945,-4374
1328,-300,207,-4374
1329,330,207,-5184
1330,330,-195,-5604
1331,741,-591,-5604
1332,741,-591,-5538
1333,291,-186,-5538
1334,-78,-186,-4965
1335,-78,-126,-4356
1336,-381,303,-4356
1337,-381,303,-3879
1338,-195,663,-3879
1339,105,663,-3924
1340,105,369,-4215
1341,480,-450,-4215
1342,480,-450,-4239
1343,480,-93,-4239
1344,-150,-93,-4323
1345,-150,-234,-4374
1346,-423,-234,-4374
1347,-423,-567,-4038
1348,63,207,-4038
1349,-99,207,-3552
1350,-99,300,-3297
1351,-699,300,-3297
1352,-699,243,-3453
1353,-525,-198,-3453
1354,-63,-198,-3714
1355,-63,-516,-3789
1356,-6,-516,-3789
1357,-6,-438,-3978
1358,-540,-216,-3978
1359,-489,-216,-3738
1360,-489,-270,-3588
1361,-546,-270,-3588
1362,-546,-72,-3789
1363,-600,3,-3789
1364,-309,3,-4044
1365,-309,-525,-4299
1366,-150,-525,-4299
1367,-150,-426,-4245
1368,-117,-360,-4245
1369,-594,-360,-4194
1370,-594,-183,-4344
1371,-597,-183,-4344
1372,-597,-147,-4461
1373,-264,-270,-4461
1374,72,-270,-4386
1375,72,-315,-4386
1376,234,-315,-4344
1377,234,-147,-4389
1378,-444,-411,-4389
1379,-681,-411,-4524
1380,-681,-243,-4524
1381,-531,-243,-4305
1382,-531,-189,-4470
1383,216,-405,-4470
1384,57,-405,-4524
1385,57,-198,-4524
1386,-426,-198,-4404
1387,-426,-312,-4269
1388,-474,-279,-4269
1389,54,-279,-4155
1390,54,-153,-4155
1391,276,-153,-4125
1392,276,-201,-4254
1393,240,-48,-4254
1394,-276,-48,-4023
1395,-276,-216,-4023
1396,-363,-216,-3882
1397,-363,-327,-3783
1398,474,-126,-3783
1399,474,-126,-3729
1400,-180,-411,-3729
1401,-372,-411,-4110
1402,-372,-504,-4200
1403,0,-519,-4200
1404,0,-519,-4170
1405,-60,-186,-4170
1406,282,-186,-3927
1407,282,-291,-3924
1408,-75,-297,-3924
1409,-75,-297,-4134
1410,330,-192,-4134
1411,453,-192,-3849
1412,453,-39,-3708
1413,210,-324,-3708
1414,210,-324,-3894
1415,198,-516,-3894
1416,-102,-516,-4098
1417,-102,-927,-4290
1418,111,-255,-4290
1419,111,-255,-3927
1420,438,-195,-3927
1421,675,-195,-3924
1422,675,-201,-4035
1423,-225,-1011,-4035
1424,-225,-1011,-4416
1425,-48,-627,-4416
1426,555,-627,-4380
1427,555,-474,-4314
1428,-42,-474,-4314
1429,-42,-1020,-4521
1430,210,-330,-4521
1431,468,-330,-4329
1432,468,-579,-4299
1433,-276,-579,-4299
1434,-276,-834,-4215
1435,318,-621,-4215
1436,192,-621,-4119
1437,192,-1185,-4314
1438,282,-1185,-4314
1439,282,-483,-3858
1440,78,-1362,-3858
1441,-408,-1362,-4419
1442,-408,-1965,-4404
1443,939,-1965,-4404
1444,939,-819,-4068
1445,105,-888,-4068
1446,201,-888,-3687
1447,201,-975,-3567
1448,603,-975,-3567
1449,603,-1527,-3852
1450,192,-1653,-3852
1451,828,-1653,-3849
1452,828,-1179,-3552
1453,681,-1179,-3552
1454,681,-717,-3366
1455,378,-1170,-3366
1456,432,-1170,-3162
1457,432,-1473,-3162
1458,810,-1473,-3141
1459,810,-1050,-3045
1460,366,-1494,-3045
1461,315,-1494,-3507
1462,315,-1851,-3507
1463,597,-1851,-3714
1464,597,-1704,-3609
1465,594,-1563,-3609
1466,348,-1563,-3684
1467,348,-1728,-3684
1468,-81,-1728,-3870
1469,-81,-1905,-3699
1470,456,-1779,-3699
1471,456,-1779,-3732
1472,465,-1635,-3732
1473,624,-1635,-3597
1474,624,-1788,-3612
1475,864,-1404,-3612
1476,864,-1404,-3246
1477,894,-1587,-3246
1478,441,-1587,-3453
1479,441,-1884,-3729
1480,963,-1674,-3729
1481,963,-1674,-3729
1482,765,-1728,-3729
1483,528,-1728,-3888
1484,528,-1935,-3894
1485,621,-1644,-3894
1486,621,-1644,-3663
1487,525,-1644,-3663
1488,402,-1644,-3777
1489,402,-1725,-3789
1490,321,-1932,-3789
1491,321,-1932,-3849
1492,525,-1614,-3849
1493,330,-1614,-3669
1494,330,-1548,-3624
1495,129,-1548,-3624
1496,129,-1680,-3678
1497,378,-1632,-3678
1498,123,-1632,-3768
1499,123,-1770,-3813
1500,318,-1770,-3813
1501,318,-1599,-3687
1502,471,-1416,-3687
1503,162,-1416,-3618
1504,162,-1611,-3759
1505,285,-1611,-3759
1506,285,-1737,-3873
1507,441,-1623,-3873
1508,606,-1623,-3648
1509,606,-1383,-3654
1510,540,-1383,-3654
1511,540,-1503,-3609
1512,465,-1515,-3609
1513,696,-1515,-3744
1514,696,-1614,-3822
1515,660,-1614,-3822
1516,660,-1575,-3714
1517,696,-1569,-3714
1518,612,-1569,-3777
1519,612,-1725,-3852
1520,663,-1725,-3852
1521,663,-1479,-3717
1522,870,-1491,-3717
1523,558,-1491,-3618
1524,558,-1533,-3783
1525,588,-1533,-3783
1526,588,-1623,-3879
1527,852,-1368,-3879
1528,765,-1368,-3714
1529,765,-1521,-3714
1530,276,-1521,-3708
1531,276,-1593,-3762
1532,855,-1473,-3762
1533,735,-1473,-3762
1534,735,-1392,-3762
1535,735,-1392,-3684
1536,735,-1416,-3672
1537,834,-1482,-3672
1538,846,-1482,-3702
1539,846,-1461,-3702
1540,549,-1461,-3732
1541,549,-1443,-3663
1542,933,-1470,-3663
1543,768,-1470,-3699
1544,768,-1416,-3699
1545,834,-1416,-3762
1546,834,-1434,-3699
1547,723,-1533,-3699
1548,723,-1533,-3774
1549,699,-1509,-3774
1550,756,-1509,-3834
1551,756,-1515,-3858
1552,642,-1536,-3858
1553,642,-1536,-3900
1554,660,-1449,-3900
1555,792,-1449,-3702
1556,792,-1461,-3813
1557,453,-1602,-3813
1558,453,-1602,-3873
1559,636,-1425,-3873
1560,594,-1425,-3813
1561,594,-1434,-3804
1562,675,-1401,-3804
1563,675,-1401,-3663
1564,708,-1356,-3663
1565,468,-1356,-3744
1566,468,-1551,-3828
1567,663,-1368,-3828
1568,663,-1368,-3813
1569,804,-1401,-3813
1570,726,-1401,-3783
1571,726,-1401,-3738
1572,612,-1491,-3738
1573,612,-1491,-3828
1574,630,-1380,-3828
1575,729,-1380,-3822
1576,729,-1407,-3909
1577,816,-1407,-3909
1578,816,-1401,-3819
1579,648,-1461,-3819
1580,741,-1461,-3885
1581,741,-1461,-3924
1582,864,-1461,-3924
1583,864,-1503,-3930
1584,831,-1338,-3930
1585,729,-1338,-3774
1586,729,-1350,-3804
1587,828,-1350,-3804
1588,828,-1401,-3792
1589,774,-1377,-3792
1590,843,-1377,-3834
1591,843,-1377,-3684
1592,774,-1377,-3684
1593,774,-1359,-3732
1594,552,-1356,-3732
1595,831,-1356,-3714
1596,831,-1329,-3672
1597,699,-1329,-3672
1598,699,-1338,-3738
1599,678,-1314,-3738
1600,711,-1314,-3663
1601,711,-1368,-3789
1602,708,-1368,-3789
1603,708,-1365,-3864
1604,612,-1377,-3864
1605,681,-1377,-3930
1606,681,-1380,-3930
1607,756,-1380,-3930
1608,756,-1455,-3954
1609,735,-1449,-3954
1610,765,-1449,-3978
1611,765,-1503,-3978
1612,870,-1503,-3999
1613,870,-1305,-3762
1614,885,-1347,-3762
1615,1020,-1347,-3879
1616,1020,-1350,-3879
1617,945,-1350,-3828
1618,945,-1497,-3900
1619,672,-1416,-3900
1620,804,-1416,-3777
1621,804,-1380,-3777
1622,804,-1380,-3699
1623,804,-1365,-3804
1624,813,-1257,-3804
1625,813,-1257,-3759
1626,687,-1377,-3759
1627,573,-1377,-3732
1628,573,-1398,-3753
1629,714,-1296,-3753
1630,714,-1296,-3612
1631,714,-1239,-3612
1632,819,-1239,-3597
1633,819,-1341,-3693
1634,726,-1347,-3693
1635,726,-1347,-3669
1636,873,-1260,-3669
1637,645,-1260,-3687
1638,645,-1371,-3762
1639,783,-1344,-3762
1640,783,-1344,-3774
1641,855,-1398,-3774
1642,678,-1398,-3762
1643,678,-1368,-3744
1644,798,-1332,-3744
1645,798,-1332,-3822
1646,735,-1446,-3822
1647,774,-1446,-3900
1648,774,-1416,-3819
1649,750,-1323,-3819
1650,750,-1323,-3738
1651,747,-1338,-3738
1652,711,-1338,-3708
1653,711,-1338,-3708
1654,774,-1323,-3708
1655,774,-1323,-3762
1656,732,-1392,-3762
1657,792,-1392,-3822
1658,792,-1380,-3837
1659,729,-1380,-3837
1660,729,-1452,-3870
1661,825,-1371,-3870
1662,828,-1371,-3834
1663,828,-1347,-3798
1664,810,-1347,-3798
1665,810,-1323,-3834
1666,819,-1407,-3834
1667,855,-1407,-3852
1668,855,-1431,-3879
1669,732,-1431,-3879
1670,732,-1389,-3888
1671,804,-1332,-3888
1672,813,-1332,-3924
1673,813,-1323,-3849
1674,867,-1323,-3849
1675,867,-1329,-3879
1676,642,-1464,-3879
1677,735,-1464,-3909
1678,735,-1191,-3744
1679,813,-1191,-3744
1680,813,-1281,-3714
1681,612,-1344,-3714
1682,681,-1344,-3807
1683,681,-1341,-3732
1684,675,-1341,-3732
1685,675,-1365,-3744
1686,699,-1383,-3744
1687,690,-1383,-3870
1688,690,-1368,-3813
1689,681,-1368,-3813
1690,681,-1305,-3807
1691,744,-1365,-3807
1692,759,-1365,-3774
1693,759,-1299,-3774
1694,729,-1299,-3774
1695,729,-1440,-3837
1696,636,-1341,-3837
1697,744,-1341,-3753
1698,744,-1392,-3753
1699,759,-1392,-3744
1700,759,-1293,-3777
1701,774,-1287,-3777
1702,810,-1287,-3783
1703,810,-1320,-3783
1704,690,-1320,-3774
1705,690,-1344,-3807
1706,825,-1398,-3807
1707,714,-1398,-3903
1708,714,-1479,-3903
1709,810,-1479,-3963
1710,810,-1293,-3915
1711,882,-1347,-3915
1712,735,-1347,-3813
1713,735,-1320,-3813
1714,759,-1320,-3837
1715,759,-1275,-3777
1716,741,-1308,-3777
1717,741,-1308,-3792
1718,885,-1239,-3792
1719,813,-1239,-3687
1720,813,-1230,-3708
1721,759,-1338,-3708
1722,759,-1338,-3747
1723,741,-1296,-3747
1724,810,-1296,-3762
1725,810,-1359,-3894
1726,834,-1278,-3894
1727,834,-1278,-3792
1728,867,-1254,-3792
1729,732,-1254,-3783
1730,732,-1311,-3822
1731,663,-1764,-3822
1732,663,-1764,-3900
1733,837,-1260,-3900
1734,849,-1260,-3894
1735,849,-1329,-3843
1736,915,-1197,-3843
1737,915,-1197,-3774
1738,846,-1161,-3774
1739,774,-1161,-3729
1740,774,-1323,-3798
1741,780,-1323,-3798
1742,780,-1365,-3939
1743,729,-1305,-3939
1744,783,-1305,-3879
1745,783,-1248,-3885
1746,825,-1248,-3885
1747,825,-1296,-3960
1748,915,-1302,-3960
1749,795,-1302,-3918
1750,795,-1287,-3792
1751,714,-1287,-3792
1752,714,-1248,-3732
1753,894,-1209,-3732
1754,693,-1209,-3744
1755,693,-1263,-3753
1756,849,-1263,-3753
1757,849,-1209,-3744
1758,921,-1242,-3744
1759,852,-1242,-3843
1760,852,-1215,-3792
1761,780,-1215,-3792
1762,780,-1320,-3819
1763,834,-1200,-3819
1764,897,-1200,-3777
1765,897,-1209,-3777
1766,921,-1209,-3738
1767,921,-1164,-3768
1768,816,-1287,-3768
1769,723,-1287,-3873
1770,723,-1248,-3873
1771,522,-1248,-3894
1772,522,-1374,-3909
1773,894,-1218,-3909
1774,981,-1218,-3954
1775,981,-1215,-3954
1776,798,-1215,-3873
1777,798,-1278,-3843
1778,780,-1308,-3843
1779,780,-1308,-3834
1780,837,-1179,-3834
1781,765,-1179,-3762
1782,765,-1272,-3822
1783,861,-1215,-3822
1784,861,-1215,-3777
1785,846,-1296,-3777
1786,834,-1296,-3693
1787,834,-1281,-3813
1788,708,-1248,-3813
1789,708,-1248,-3783
1790,756,-1260,-3783
1791,534,-1260,-3807
1792,534,-1293,-3804
1793,747,-1194,-3804
1794,747,-1194,-3729
1795,924,-1236,-3729
1796,549,-1236,-3813
1797,549,-1452,-3945
1798,453,-1338,-3945
1799,453,-1338,-3837
1800,558,-1137,-3837
1801,750,-1137,-3732
1802,750,-1047,-3717
1803,597,-1047,-3717
1804,597,-1446,-4065
1805,636,-1272,-4065
1806,741,-1272,-3954
1807,741,-1257,-3999
1808,681,-1257,-3999
1809,681,-1296,-3888
1810,510,-1287,-3888
1811,516,-1287,-3873
1812,516,-1239,-3885
1813,399,-1239,-3885
1814,399,-1212,-3852
1815,825,-1128,-3852
1816,759,-1128,-3729
1817,759,-1215,-3915
1818,480,-1215,-3915
1819,480,-1338,-3918
1820,459,-1272,-3918
1821,747,-1272,-3849
1822,747,-1122,-3744
1823,612,-1122,-3744
1824,612,-1230,-3777
1825,618,-1152,-3777
1826,741,-1152,-3747
1827,741,-1317,-3747
1828,456,-1317,-3885
1829,456,-1281,-3963
1830,714,-1221,-3963
1831,657,-1221,-3879
1832,657,-1230,-3879
1833,681,-1230,-3753
1834,681,-1119,-3744
1835,708,-1266,-3744
1836,483,-1266,-3813
1837,483,-1344,-3813
1838,627,-1344,-3915
1839,627,-1236,-3852
1840,693,-1254,-3852
1841,693,-1254,-3822
1842,567,-1215,-3822
1843,579,-1215,-3792
1844,579,-1344,-3894
1845,447,-1395,-3894
1846,447,-1395,-3978
1847,555,-1314,-3978
1848,561,-1314,-3963
1849,561,-1239,-3918
1850,528,-1281,-3918
1851,528,-1281,-3834
1852,555,-1269,-3834
1853,474,-1269,-3945
1854,474,-1221,-3939
1855,645,-1215,-3939
1856,645,-1215,-3858
1857,639,-1188,-3858
1858,636,-1188,-3864
1859,636,-1176,-3798
1860,834,-1071,-3798
1861,834,-1071,-3777
1862,573,-1302,-3777
1863,369,-1302,-3894
1864,369,-1323,-3933
1865,660,-1323,-3933
1866,660,-1128,-3813
1867,969,-1239,-3813
1868,657,-1239,-3858
1869,657,-1212,-3828
1870,606,-1212,-3828
1871,606,-1218,-3798
1872,486,-1191,-3798
1873,603,-1191,-3828
1874,603,-1281,-3903
1875,597,-1281,-3903
1876,597,-1209,-3954
1877,570,-1191,-3954
1878,552,-1191,-3843
1879,552,-1266,-3930
1880,459,-1266,-3930
1881,459,-1263,-3975
1882,711,-1170,-3975
1883,597,-1170,-3903
1884,597,-1287,-3945
1885,507,-1287,-3945
1886,507,-1263,-3918
1887,624,-1296,-3918
1888,576,-1296,-3960
1889,576,-1269,-3960
1890,540,-1269,-3930
1891,540,-1206,-3834
1892,639,-1251,-3834
1893,552,-1251,-3894
1894,552,-1281,-3894
1895,741,-1281,-3870
1896,741,-1191,-3783
1897,627,-1290,-3783
1898,561,-1290,-3849
1899,561,-1245,-3849
1900,696,-1245,-3843
1901,696,-1263,-3804
1902,639,-1239,-3804
1903,639,-1239,-3804
1904,561,-1263,-3804
1905,630,-1263,-3849
1906,630,-1179,-3789
1907,525,-1242,-3789
1908,525,-1242,-3804
1909,390,-1212,-3804
1910,549,-1212,-3798
1911,549,-1248,-3783
1912,693,-1245,-3783
1913,693,-1245,-3894
1914,579,-1206,-3894
1915,552,-1206,-3879
1916,552,-1242,-3894
1917,561,-1167,-3894
1918,561,-1167,-3792
1919,654,-1200,-3792
1920,630,-1200,-3852
1921,630,-1203,-3789
1922,798,-1296,-3789
1923,798,-1296,-3945
1924,603,-1194,-3945
1925,657,-1194,-3819
1926,657,-1194,-3849
1927,750,-1173,-3849
1928,750,-1173,-3822
1929,717,-1242,-3822
1930,621,-1242,-3915
1931,621,-1392,-3894
1932,567,-1392,-3894
1933,567,-1188,-3864
1934,597,-1188,-3864
1935,597,-1188,-3999
1936,597,-1527,-3945
1937,762,-1527,-3945
1938,762,-1164,-3918
1939,585,-1302,-3918
1940,540,-1302,-4089
1941,540,-1308,-3993
1942,747,-1308,-3993
1943,747,-1128,-3933
1944,711,-1221,-3933
1945,612,-1221,-3870
1946,612,-1185,-3909
1947,657,-1185,-3909
1948,657,-1191,-3900
1949,672,-1149,-3900
1950,699,-1149,-3873
1951,699,-1164,-3873
1952,693,-1164,-3822
1953,693,-1167,-3843
1954,483,-1227,-3843
1955,708,-1227,-3789
1956,708,-1188,-3789
1957,672,-1188,-3813
1958,672,-1236,-3894
1959,705,-1251,-3894
1960,657,-1251,-3885
1961,657,-1227,-3885
1962,705,-1227,-3789
1963,705,-1155,-3699
1964,594,-1167,-3699
1965,594,-1167,-3747
1966,579,-1251,-3747
1967,741,-1251,-3822
1968,741,-1161,-3783
1969,681,-1266,-3783
1970,681,-1266,-3873
1971,609,-1164,-3873
1972,663,-1164,-3900
1973,663,-1209,-3888
1974,612,-1194,-3888
1975,612,-1194,-3900
1976,627,-1212,-3900
1977,690,-1212,-3924
1978,690,-1236,-3945
1979,606,-1251,-3945
1980,606,-1251,-3909
1981,591,-1191,-3909
1982,711,-1191,-3849
1983,711,-1164,-3837
1984,666,-1116,-3837
1985,666,-1116,-3759
1986,657,-1152,-3759
1987,744,-1152,-3819
1988,744,-1197,-3834
1989,678,-1197,-3834
1990,678,-1218,-3813
1991,576,-1209,-3813
1992,675,-1209,-3828
1993,675,-1086,-3804
1994,708,-1086,-3804
1995,708,-1122,-3807
1996,675,-1191,-3807
1997,672,-1191,-3837
1998,672,-1158,-3852
1999,585,-1158,-3852
2000,585,-1224,-3885
2001,654,-1101,-3885
2002,693,-1101,-3849
2003,693,-1137,-3915
2004,666,-1137,-3915
2005,666,-1158,-3870
2006,624,-1308,-3870
2007,591,-1308,-4020
2008,591,-1185,-3939
2009,783,-1185,-3939
2010,783,-1152,-3948
2011,744,-1107,-3948
2012,786,-1107,-3948
2013,786,-1179,-4023
2014,834,-1179,-4023
2015,834,-1170,-3948
2016,636,-1215,-3948
2017,783,-1215,-3903
2018,783,-1101,-3792
2019,783,-1101,-3792
2020,783,-1158,-3858
2021,693,-1104,-3858
2022,783,-1104,-3807
2023,783,-1092,-3783
2024,654,-1092,-3783
2025,654,-1200,-3849
2026,723,-1161,-3849
2027,795,-1161,-3954
2028,795,-1128,-3954
2029,618,-1128,-3909
2030,618,-1047,-3837
2031,765,-1125,-3837
2032,660,-1125,-3915
2033,660,-1119,-3915
2034,813,-1119,-3933
2035,813,-1119,-3885
2036,813,-1113,-3885
2037,801,-1113,-3834
2038,801,-1095,-3834
2039,750,-1095,-3813
2040,750,-1107,-3843
2041,762,-1095,-3843
2042,714,-1095,-3924
2043,714,-1212,-3924
2044,666,-1212,-4005
2045,666,-1116,-3939
2046,897,-1095,-3939
2047,882,-1095,-4044
2048,882,-1101,-4044
2049,834,-1101,-3963
2050,834,-1110,-3924
2051,831,-1110,-3924
2052,672,-1110,-3915
2053,672,-1149,-3915
2054,939,-1149,-3864
2055,939,-1053,-3852
2056,933,-1098,-3852
2057,786,-1098,-3870
2058,786,-1149,-3870
2059,804,-1149,-3933
2060,804,-1086,-3813
2061,810,-1149,-3813
2062,804,-1149,-3819
2063,804,-1110,-3819
2064,765,-1110,-3870
2065,765,-1197,-3900
2066,981,-1065,-3900
2067,981,-1065,-3852
2068,846,-1185,-3852
2069,768,-1185,-3843
2070,768,-1161,-3783
2071,774,-1086,-3783
2072,774,-1086,-3828
2073,861,-1125,-3828
2074,762,-1125,-3888
2075,762,-1143,-3852
2076,804,-1185,-3852
2077,804,-1185,-3852
2078,744,-1035,-3852
2079,801,-1035,-3822
2080,801,-1071,-3834
2081,747,-1191,-3834
2082,747,-1191,-3849
2083,924,-1017,-3849
2084,810,-1017,-3762
2085,810,-1179,-3843
2086,765,-1116,-3843
2087,765,-1116,-3792
2088,873,-1155,-3792
2089,852,-1155,-3834
2090,852,-1146,-3885
2091,939,-1173,-3885
2092,939,-1173,-3885
2093,879,-1104,-3885
2094,900,-1104,-3837
2095,900,-1170,-3852
2096,855,-1143,-3852
2097,855,-1143,-3879
2098,957,-1248,-3879
2099,855,-1248,-3954
2100,855,-1149,-3870
2101,687,-1149,-3870
2102,687,-1122,-3813
2103,711,-1152,-3813
2104,888,-1152,-3792
2105,888,-1095,-3717
2106,711,-1095,-3717
2107,711,-1269,-3909
2108,612,-1098,-3909
2109,855,-1098,-3792
2110,855,-1149,-3837
2111,714,-1149,-3837
2112,714,-1149,-3789
2113,519,-1212,-3789
2114,837,-1212,-3822
2115,837,-1146,-3729
2116,843,-1146,-3729
2117,843,-1134,-3762
2118,726,-1143,-3762
2119,780,-1143,-3777
2120,780,-1161,-3777
2121,843,-1161,-3774
2122,843,-1137,-3888
2123,744,-1143,-3888
2124,801,-1143,-3789
2125,801,-1146,-3789
2126,852,-1146,-3849
2127,852,-1146,-3930
2128,792,-1203,-3930
2129,855,-1203,-3930
2130,855,-1098,-3930
2131,813,-1098,-3762
2132,813,-1164,-3852
2133,774,-1188,-3852
2134,741,-1188,-3888
2135,741,-1155,-3888
2136,846,-1155,-3828
2137,846,-1155,-3879
2138,864,-1140,-3879
2139,864,-1140,-3888
2140,870,-1158,-3888
2141,780,-1158,-3864
2142,780,-1203,-3819
2143,873,-1068,-3819
2144,873,-1068,-3834
2145,912,-1218,-3834
2146,813,-1218,-3873
2147,813,-1128,-3834
2148,795,-1191,-3834
2149,795,-1191,-3852
2150,879,-1116,-3852
2151,834,-1116,-3783
2152,834,-1197,-3903
2153,966,-1140,-3903
2154,966,-1140,-3813
2155,855,-1155,-3813
2156,867,-1155,-3873
2157,867,-1143,-3813
2158,879,-1125,-3813
2159,879,-1125,-3732
2160,915,-1149,-3732
2161,987,-1149,-3822
2162,987,-1104,-3768
2163,981,-1110,-3768
2164,981,-1110,-3819
2165,975,-1113,-3819
2166,933,-1113,-3714
2167,933,-1119,-3792
2168,975,-1119,-3792
2169,975,-1167,-3903
2170,885,-1134,-3903
2171,1017,-1134,-3849
2172,1017,-1128,-3822
2173,888,-1128,-3822
2174,888,-1146,-3858
2175,933,-1089,-3858
2176,1005,-1089,-3768
2177,1005,-1122,-3819
2178,870,-1122,-3819
2179,870,-1164,-3837
2180,879,-1152,-3837
2181,1023,-1152,-3915
2182,1023,-1185,-3807
2183,948,-1185,-3807
2184,948,-1134,-3819
2185,963,-1095,-3819
2186,888,-1095,-3885
2187,888,-1101,-3798
2188,855,-1101,-3798
2189,855,-1164,-3858
2190,918,-1158,-3858
2191,903,-1158,-3894
2192,903,-1128,-3864
2193,957,-1128,-3864
2194,957,-1101,-3888
2195,843,-1140,-3888
2196,855,-1140,-3873
2197,855,-1164,-3915
2198,912,-1164,-3915
2199,912,-1092,-3807
2200,855,-1167,-3807
2201,921,-1167,-3774
2202,921,-1116,-3834
2203,900,-1116,-3834
2204,900,-1077,-3858
2205,915,-1089,-3858
2206,846,-1089,-3852
2207,846,-1149,-3813
2208,855,-1149,-3813
2209,855,-1077,-3798
2210,948,-1137,-3798
2211,903,-1137,-3864
2212,903,-1146,-3864
2213,900,-1146,-3837
2214,900,-1092,-3753
2215,981,-1137,-3753
2216,882,-1137,-3783
2217,882,-1089,-3783
2218,888,-1089,-3759
2219,888,-1128,-3828
2220,849,-1179,-3828
2221,870,-1179,-3870
2222,870,-1149,-3870
2223,873,-1149,-3909
2224,873,-1101,-3834
2225,852,-1128,-3834
2226,903,-1128,-3930
2227,903,-1167,-3930
2228,870,-1167,-3990
2229,870,-1140,-3888
2230,936,-1143,-3888
2231,951,-1143,-3807
2232,951,-1143,-3807
2233,984,-1143,-3708
2234,984,-1083,-3777
2235,969,-1152,-3777
2236,897,-1152,-3807
2237,897,-1116,-3807
2238,921,-1116,-3843
2239,921,-1119,-3768
2240,939,-1152,-3768
2241,939,-1152,-3714
2242,903,-1068,-3714
2243,933,-1068,-3774
2244,933,-1113,-3747
2245,963,-1074,-3747
2246,963,-1074,-3717
2247,867,-1116,-3717
2248,930,-1116,-3732
2249,930,-1077,-3819
2250,915,-1128,-3819
2251,915,-1128,-3849
2252,912,-1134,-3849
2253,924,-1134,-3918
2254,924,-1170,-3915
2255,906,-1155,-3915
2256,906,-1155,-3894
2257,1014,-1125,-3894
2258,957,-1125,-3954
2259,957,-1167,-4005
2260,849,-1149,-4005
2261,849,-1149,-4014
2262,951,-1059,-4014
2263,981,-1059,-3873
2264,981,-1098,-3879
2265,894,-1176,-3879
2266,894,-1176,-3960
2267,954,-1095,-3960
2268,957,-1095,-3870
2269,957,-1083,-3843
2270,825,-1083,-3843
2271,825,-1083,-3744
2272,999,-1026,-3744
2273,1014,-1026,-3693
2274,1014,-1098,-3807
2275,918,-1098,-3807
2276,918,-1104,-3849
2277,1020,-1107,-3849
2278,1086,-1107,-3792
2279,1086,-1089,-3774
2280,948,-1089,-3774
2281,948,-1038,-3744
2282,975,-1062,-3744
2283,885,-1062,-3702
2284,885,-1044,-3747
2285,888,-1044,-3747
2286,888,-1116,-3837
2287,999,-1089,-3837
2288,987,-1089,-3888
2289,987,-1104,-3879
2290,918,-1104,-3879
2291,918,-1116,-3909
2292,873,-1110,-3909
2293,1041,-1110,-3924
2294,1041,-1161,-3969
2295,1002,-1161,-3969
2296,1002,-1179,-3984
2297,1110,-1101,-3984
2298,831,-1101,-3984
2299,831,-1155,-3894
2300,936,-1155,-3894
2301,936,-1086,-3873
2302,1038,-1116,-3873
2303,972,-1116,-3969
2304,972,-1122,-3924
2305,951,-1122,-3924
2306,951,-1140,-3900
2307,951,-1095,-3900
2308,900,-1095,-3888
2309,900,-1074,-3888
2310,1023,-1074,-3789
2311,1023,-1071,-3864
2312,1014,-1068,-3864
2313,954,-1068,-3777
2314,954,-1095,-3777
2315,957,-1095,-3789
2316,957,-1107,-3783
2317,1023,-1071,-3783
2318,948,-1071,-3744
2319,948,-1110,-3744
2320,1017,-1110,-3774
2321,1017,-1050,-3834
2322,1041,-1143,-3834
2323,1041,-1143,-3804
2324,948,-1167,-3804
2325,954,-1167,-3777
2326,954,-1143,-3870
2327,945,-1140,-3870
2328,945,-1140,-3900
2329,900,-1170,-3900
2330,879,-1170,-3894
2331,879,-1176,-3849
2332,885,-1152,-3849
2333,885,-1152,-3873
2334,987,-1134,-3873
2335,918,-1134,-3924
2336,918,-1143,-3879
2337,852,-1119,-3879
2338,852,-1119,-3819
2339,975,-1086,-3819
2340,984,-1086,-3723
2341,984,-1140,-3813
2342,1032,-1077,-3813
2343,1032,-1077,-3798
2344,1044,-1092,-3798
2345,981,-1092,-3798
2346,981,-1047,-3717
2347,993,-1038,-3717
2348,993,-1038,-3747
2349,1020,-1143,-3747
2350,975,-1143,-3858
2351,975,-1140,-3903
2352,921,-1140,-3903
2353,921,-1047,-3762
2354,918,-981,-3762
2355,921,-981,-3762
2356,921,-1083,-3852
2357,912,-1083,-3852
2358,912,-1221,-3915
2359,885,-1047,-3915
2360,972,-1047,-3885
2361,972,-1041,-3894
2362,849,-1041,-3894
2363,849,-1065,-3879
2364,1005,-1059,-3879
2365,861,-1059,-3843
2366,861,-1140,-3903
2367,834,-1140,-3903
2368,834,-1089,-3939
2369,1128,-1035,-3939
2370,1002,-1035,-3909
2371,1002,-972,-3783
2372,945,-972,-3783
2373,945,-987,-3744
2374,1119,-903,-3744
2375,963,-903,-3702
2376,963,-1089,-3702
2377,843,-1089,-3858
2378,843,-996,-3885
2379,993,-939,-3885
2380,969,-939,-3879
2381,969,-972,-3879
2382,993,-972,-3822
2383,993,-930,-3894
2384,1071,-960,-3894
2385,870,-960,-3870
2386,870,-969,-3870
2387,867,-969,-3888
2388,867,-1011,-3909
2389,1005,-1077,-3909
2390,1023,-1077,-4008
2391,1023,-1107,-4008
2392,1014,-1107,-4005
2393,1014,-960,-3999
2394,1170,-990,-3999
2395,1170,-990,-3858
2396,933,-939,-3858
2397,882,-939,-3804
2398,882,-912,-3774
2399,972,-1026,-3774
2400,972,-1026,-3792
2401,1023,-1041,-3792
2402,1083,-1041,-3870
2403,1083,-1146,-3984
2404,777,-1107,-3984
2405,777,-1107,-4080
2406,831,-1134,-4080
2407,1056,-1134,-3963
2408,1056,-939,-3873
2409,1077,-912,-3873
2410,1077,-912,-3819
2411,816,-999,-3819
2412,993,-999,-3792
2413,993,-921,-3729
2414,990,-960,-3729
2415,990,-960,-3822
2416,732,-1119,-3822
2417,849,-1119,-3807
2418,849,-921,-3879
2419,930,-921,-3879
2420,930,-1005,-3843
2421,747,-1056,-3843
2422,993,-1056,-4029
2423,993,-930,-3903
2424,975,-930,-3903
2425,975,-969,-3990
2426,882,-1059,-3990
2427,861,-1059,-3930
2428,861,-1008,-3783
2429,939,-1008,-3783
2430,939,-957,-3864
2431,906,-1089,-3864
2432,939,-1089,-3924
2433,939,-963,-3843
2434,1041,-963,-3843
2435,1041,-1017,-3873
2436,867,-1011,-3873
2437,843,-1011,-3849
2438,843,-972,-3837
2439,1053,-972,-3837
2440,1053,-915,-3792
2441,861,-1116,-3792
2442,990,-1116,-3960
2443,990,-903,-3870
2444,1110,-903,-3870
2445,1110,-1044,-3903
2446,948,-999,-3903
2447,948,-999,-3930
2448,948,-945,-3930
2449,930,-945,-3918
2450,930,-1026,-3828
2451,831,-957,-3828
2452,861,-957,-3837
2453,861,-1089,-3837
2454,873,-1089,-3903
2455,873,-981,-3903
2456,888,-993,-3903
2457,795,-993,-3924
2458,795,-1020,-3924
2459,1002,-1020,-3849
2460,1002,-930,-3885
2461,918,-921,-3885
2462,984,-921,-3813
2463,984,-981,-3813
2464,951,-981,-3903
2465,951,-969,-3837
2466,1158,-966,-3837
2467,1026,-966,-3870
2468,1026,-930,-3870
2469,888,-930,-3819
2470,888,-975,-3873
2471,873,-987,-3873
2472,873,-987,-3852
2473,1164,-855,-3852
2474,1074,-855,-3744
2475,1074,-996,-3858
2476,903,-1002,-3858
2477,903,-1002,-3789
2478,1101,-861,-3789
2479,1077,-861,-3777
2480,1077,-936,-3828
2481,939,-996,-3828
2482,939,-996,-3894
2483,1092,-906,-3894
2484,999,-906,-3837
2485,999,-1095,-3894
2486,843,-879,-3894
2487,843,-879,-3804
2488,1155,-918,-3804
2489,870,-918,-3834
2490,870,-1035,-3852
2491,963,-873,-3852
2492,963,-873,-3873
2493,1008,-1056,-3873
2494,900,-1056,-3909
2495,900,-930,-3903
2496,1017,-930,-3903
2497,1017,-933,-3900
2498,897,-1026,-3900
2499,948,-1026,-3945
2500,948,-939,-3879
2501,1083,-939,-3879
2502,1083,-942,-3888
2503,918,-1050,-3888
2504,1023,-1050,-3888
2505,1023,-855,-3894
2506,1002,-855,-3894
2507,1002,-1071,-3954
2508,972,-858,-3954
2509,1137,-858,-3834
2510,1137,-894,-3792
2511,930,-894,-3792
2512,930,-936,-3858
2513,1092,-915,-3858
2514,984,-915,-3843
2515,984,-1056,-3843
2516,993,-1056,-3960
2517,993,-909,-3915
2518,1092,-942,-3915
2519,900,-942,-3849
2520,900,-921,-3849
2521,1041,-921,-3807
2522,1041,-873,-3819
2523,936,-963,-3819
2524,870,-963,-3858
2525,870,-882,-3858
2526,1035,-882,-3798
2527,1035,-942,-3948
2528,915,-1014,-3948
2529,915,-1014,-3999
2530,1002,-948,-3999
2531,915,-948,-3894
2532,915,-939,-3819
2533,1005,-855,-3819
2534,1005,-855,-3813
2535,879,-948,-3813
2536,954,-948,-3843
2537,954,-966,-3852
2538,1002,-912,-3852
2539,1002,-912,-3879
2540,885,-966,-3879
2541,849,-966,-3945
2542,849,-1023,-4008
2543,1056,-879,-4008
2544,1056,-879,-3924
2545,1155,-984,-3924
2546,987,-984,-3978
2547,987,-936,-3903
2548,1101,-936,-3903
2549,1101,-936,-3900
2550,1017,-969,-3900
2551,1068,-969,-3903
2552,1068,-882,-3849
2553,1026,-882,-3849
2554,1026,-969,-3849
2555,1104,-891,-3849
2556,1005,-891,-3828
2557,1005,-1023,-3894
2558,948,-1023,-3894
2559,948,-870,-3804
2560,1140,-957,-3804
2561,1062,-957,-3894
2562,1062,-912,-3873
2563,1173,-912,-3873
2564,1173,-918,-3870
2565,1077,-1011,-3870
2566,1128,-1011,-3909
2567,1128,-975,-3960
2568,1101,-975,-3960
2569,1101,-1089,-3954
2570,1050,-933,-3954
2571,1131,-933,-3843
2572,1131,-930,-3894
2573,1026,-930,-3894
2574,1026,-933,-3837
2575,1044,-984,-3837
2576,1101,-984,-3885
2577,1101,-942,-3885
2578,987,-942,-3900
2579,987,-963,-3873
2580,1008,-930,-3873
2581,843,-930,-3804
2582,843,-915,-3804
2583,912,-915,-3768
2584,912,-864,-3672
2585,1008,-969,-3672
2586,918,-969,-3708
2587,918,-894,-3708
2588,984,-894,-3699
2589,984,-918,-3663
2590,900,-948,-3663
2591,852,-948,-3798
2592,852,-1023,-3798
2593,987,-1023,-3849
2594,987,-915,-3783
2595,969,-999,-3783
2596,969,-999,-3864
2597,948,-885,-3864
2598,1113,-885,-3837
2599,1113,-984,-3969
2600,1035,-1023,-3969
2601,1035,-1023,-3894
2602,1137,-936,-3894
2603,1077,-936,-3843
2604,1077,-999,-3924
2605,1014,-969,-3924
2606,1014,-969,-3909
2607,1071,-951,-3909
2608,1062,-951,-3909
2609,1062,-966,-3885
2610,867,-912,-3885
2611,867,-912,-3819
2612,969,-966,-3819
2613,981,-966,-3864
2614,981,-903,-3894
2615,864,-1041,-3894
2616,864,-1041,-3915
2617,852,-897,-3915
2618,1086,-897,-3888
2619,1086,-891,-3903
2620,990,-960,-3903
2621,990,-960,-3834
2622,1023,-957,-3834
2623,1035,-957,-3804
2624,1035,-939,-3747
2625,1005,-963,-3747
2626,1005,-963,-3759
2627,930,-903,-3759
2628,1092,-903,-3843
2629,1092,-900,-3843
2630,954,-966,-3843
2631,954,-966,-3858
2632,1008,-969,-3858
2633,975,-969,-3903
2634,975,-1038,-4005
2635,915,-894,-4005
2636,915,-894,-3894
2637,993,-963,-3894
2638,831,-963,-3999
2639,831,-939,-3915
2640,969,-960,-3915
2641,969,-960,-3879
2642,939,-960,-3879
2643,921,-960,-3873
2644,921,-948,-3960
2645,888,-996,-3960
2646,888,-996,-3879
2647,951,-870,-3879
2648,999,-870,-3819
2649,999,-954,-3828
2650,1023,-906,-3828
2651,1023,-906,-3864
2652,1002,-1005,-3864
2653,828,-1005,-3888
2654,828,-906,-3777
2655,1131,-882,-3777
2656,1131,-882,-3813
2657,1101,-912,-3813
2658,1050,-912,-3903
2659,1050,-948,-3864
2660,1005,-948,-3864
2661,1005,-966,-3900
2662,1053,-828,-3900
2663,1050,-828,-3918
2664,1050,-1020,-3975
2665,1026,-1020,-3975
2666,1026,-915,-3933
2667,1062,-849,-3933
2668,1053,-849,-3894
2669,1053,-903,-3960
2670,930,-903,-3960
2671,930,-930,-3939
2672,930,-921,-3939
2673,984,-921,-3978
2674,984,-942,-3873
2675,1221,-942,-3873
2676,1221,-861,-3930
2677,1326,-873,-3930
2678,1137,-873,-3999
2679,1137,-990,-4104
2680,1002,-990,-4104
2681,1002,-1002,-4098
2682,1266,-948,-4098
2683,1347,-948,-4053
2684,1347,-900,-4020
2685,993,-900,-4020
2686,993,-972,-3924
2687,906,-864,-3924
2688,972,-864,-3837
2689,972,-852,-3837
2690,882,-852,-3852
2691,882,-939,-3885
2692,867,-846,-3885
2693,1014,-846,-3822
2694,1014,-879,-3822
2695,957,-879,-3852
2696,957,-921,-3879
2697,867,-996,-3879
2698,846,-996,-3894
2699,846,-951,-3894
2700,1014,-951,-3834
2701,1014,-912,-3807
2702,1044,-987,-3807
2703,870,-987,-3879
2704,870,-957,-3879
2705,966,-957,-3792
2706,966,-894,-3774
2707,963,-951,-3774
2708,831,-951,-3888
2709,831,-1020,-3888
2710,912,-1020,-3870
2711,912,-912,-3798
2712,984,-960,-3798
2713,843,-960,-3828
2714,843,-930,-3828
2715,954,-930,-3777
2716,954,-975,-3858
2717,924,-963,-3858
2718,924,-963,-3777
2719,834,-1056,-3777
2720,864,-1056,-3798
2721,864,-915,-3789
2722,951,-1017,-3789
2723,951,-1017,-3870
2724,870,-993,-3870
2725,1050,-993,-3807
2726,1050,-963,-3834
2727,1056,-948,-3834
2728,1056,-948,-3819
2729,906,-963,-3819
2730,825,-963,-3828
2731,825,-951,-3762
2732,1071,-939,-3762
2733,1071,-939,-3804
2734,999,-1017,-3804
2735,1014,-1017,-3852
2736,1014,-1032,-3873
2737,936,-975,-3873
2738,936,-975,-3873
2739,1023,-957,-3873
2740,885,-957,-3858
2741,885,-921,-3819
2742,1191,-921,-3819
2743,1191,-894,-3753
2744,1170,-903,-3753
2745,1224,-903,-3738
2746,1224,-921,-3828
2747,1221,-921,-3828
2748,1221,-951,-3894
2749,1359,-948,-3894
2750,1359,-948,-3873
2751,1359,-972,-3885
2752,1350,-972,-3885
2753,1350,-897,-3885
2754,1251,-948,-3885
2755,1221,-948,-3873
2756,1221,-945,-3819
2757,1131,-945,-3819
2758,1131,-975,-3798
2759,1182,-987,-3798
2760,1155,-987,-3747
2761,1155,-990,-3708
2762,1074,-990,-3708
2763,1074,-1113,-3900
2764,1182,-1035,-3900
2765,1161,-1035,-3858
2766,1161,-1200,-4059
2767,993,-1200,-4059
2768,993,-1203,-3999
2769,936,-1221,-3999
2770,1050,-1221,-4014
2771,1050,-1143,-3918
2772,999,-1143,-3918
2773,999,-1200,-3759
2774,990,-1095,-3759
2775,1038,-1095,-3768
2776,1038,-1092,-3768
2777,990,-1092,-3708
2778,990,-1041,-3759
2779,1023,-1065,-3759
2780,1197,-1065,-3642
2781,1197,-1098,-3642
2782,1182,-1098,-3729
2783,1182,-1104,-3879
2784,1221,-1155,-3879
2785,1251,-1155,-3828
2786,1251,-1176,-3828
2787,1161,-1176,-3933
2788,1161,-1236,-3963
2789,1146,-1194,-3963
2790,1107,-1194,-3915
2791,1107,-1176,-3915
2792,1101,-1176,-3777
2793,1101,-1173,-3702
2794,933,-1140,-3702
2795,924,-1140,-3714
2796,924,-1155,-3714
2797,1017,-1155,-3789
2798,1017,-1200,-3804
2799,870,-1209,-3804
2800,870,-1209,-3777
2801,984,-1161,-3777
2802,999,-1161,-3762
2803,999,-1194,-3768
2804,972,-1236,-3768
2805,972,-1236,-3744
2806,1008,-1158,-3744
2807,921,-1158,-3789
2808,921,-1191,-3708
2809,981,-1095,-3708
2810,981,-1095,-3678
2811,1131,-1104,-3678
2812,999,-1104,-3609
2813,999,-1155,-3612
2814,1056,-1011,-3612
2815,1056,-1011,-3567
2816,1050,-1074,-3567
2817,1158,-1074,-3627
2818,1158,-1116,-3753
2819,1191,-1227,-3753
2820,1191,-1227,-3777
2821,1146,-1104,-3777
2822,1158,-1104,-3708
2823,1158,-1170,-3762
2824,930,-1152,-3762
2825,930,-1152,-3804
2826,1095,-1116,-3804
2827,1083,-1116,-3789
2828,1083,-1212,-3834
2829,1059,-1212,-3834
2830,1059,-1128,-3828
2831,1020,-1191,-3828
2832,957,-1191,-3945
2833,957,-1221,-3993
2834,939,-1221,-3993
2835,939,-1215,-3948
2836,984,-1158,-3948
2837,915,-1158,-3849
2838,915,-1143,-3789
2839,861,-1143,-3789
2840,861,-1101,-3858
2841,1008,-1128,-3858
2842,912,-1128,-3924
2843,912,-1191,-3852
2844,885,-1191,-3852
2845,885,-1092,-3753
2846,1014,-1071,-3753
2847,990,-1071,-3672
2848,990,-1095,-3744
2849,945,-1095,-3744
2850,945,-1035,-3678
2851,1002,-1035,-3678
2852,1092,-1035,-3642
2853,1092,-1074,-3699
2854,1173,-1074,-3699
2855,1173,-1086,-3777
2856,1170,-1107,-3777
2857,1215,-1107,-3792
2858,1215,-1119,-3699
2859,1227,-1119,-3699
2860,1227,-1050,-3723
2861,1368,-1098,-3723
2862,1245,-1098,-3870
2863,1245,-1143,-3870
2864,1194,-1143,-3813
2865,1194,-1173,-3888
2866,1275,-1074,-3888
2867,1347,-1074,-3789
2868,1347,-1116,-3789
2869,1248,-1116,-3837
2870,1248,-1146,-3813
2871,1164,-1155,-3813
2872,1317,-1155,-3960
2873,1317,-1152,-3960
2874,1173,-1152,-3945
2875,1173,-1173,-3873
2876,1125,-1083,-3873
2877,1209,-1083,-3738
2878,1209,-1122,-3738
2879,1209,-1122,-3792
2880,1209,-1155,-3852
2881,1059,-1146,-3852
2882,1059,-1146,-3693
2883,1092,-1140,-3693
2884,1068,-1140,-3672
2885,1068,-1065,-3663
2886,1104,-1188,-3663
2887,1104,-1188,-3678
2888,1014,-1152,-3678
2889,1101,-1152,-3684
2890,1101,-1146,-3732
2891,1107,-1170,-3732
2892,1107,-1170,-3753
2893,951,-1230,-3753
2894,1005,-1230,-3858
2895,1005,-1161,-3888
2896,966,-1203,-3888
2897,966,-1203,-3870
2898,1140,-1119,-3870
2899,948,-1119,-3783
2900,948,-1221,-3828
2901,1083,-1236,-3828
2902,1083,-1236,-3828
2903,963,-1194,-3828
2904,951,-1194,-3762
2905,951,-1203,-3798
2906,1044,-1173,-3798
2907,1044,-1173,-3717
2908,1044,-1092,-3717
2909,867,-1092,-3648
2910,867,-1083,-3642
2911,1014,-1083,-3642
2912,1014,-1062,-3597
2913,1071,-1077,-3597
2914,1086,-1077,-3639
2915,1086,-1107,-3603
2916,1179,-1107,-3603
2917,1179,-1041,-3603
2918,1119,-1101,-3603
2919,1122,-1101,-3603
2920,1122,-1113,-3669
2921,1113,-1113,-3669
2922,1113,-1038,-3693
2923,1269,-1104,-3693
2924,1368,-1104,-3723
2925,1368,-1128,-3753
2926,1314,-1128,-3753
2927,1314,-1134,-3798
2928,1143,-1158,-3798
2929,1146,-1158,-3852
2930,1146,-1149,-3864
2931,1224,-1149,-3864
2932,1224,-1146,-3843
2933,1308,-1137,-3843
2934,1224,-1137,-3870
2935,1224,-1194,-3819
2936,1263,-1194,-3819
2937,1263,-1173,-3843
2938,1158,-1179,-3843
2939,1263,-1179,-3858
2940,1263,-1092,-3939
2941,1215,-1092,-3939
2942,1215,-1068,-3747
2943,1176,-990,-3747
2944,1197,-990,-3657
2945,1197,-1011,-3657
2946,1242,-1011,-3717
2947,1242,-1041,-3687
2948,1365,-996,-3687
2949,1368,-996,-3654
2950,1368,-981,-3654
2951,1260,-981,-3624
2952,1260,-963,-3564
2953,1215,-1044,-3564
2954,1290,-1044,-3663
2955,1290,-1056,-3663
2956,1332,-1056,-3717
2957,1332,-1116,-3858
2958,1209,-1113,-3858
2959,1224,-1113,-3954
2960,1224,-1089,-3954
2961,1206,-1089,-3849
2962,1206,-1173,-4035
2963,1170,-1173,-4035
2964,1170,-1173,-3954
2965,1152,-1128,-3954
2966,1077,-1128,-3918
2967,1077,-1176,-3870
2968,1152,-1020,-3870
2969,1152,-1020,-3822
2970,1299,-1041,-3822
2971,1152,-1041,-3789
2972,1152,-1059,-3774
2973,1068,-1044,-3774
2974,1068,-1044,-3729
2975,1278,-1050,-3729
2976,1233,-1050,-3729
2977,1233,-1041,-3768
2978,1215,-1026,-3768
2979,1215,-1026,-3708
2980,1173,-963,-3708
2981,1194,-963,-3663
2982,1194,-954,-3693
2983,1092,-987,-3693
2984,1092,-987,-3657
2985,1035,-1017,-3657
2986,1263,-1017,-3633
2987,1263,-969,-3744
2988,1194,-1083,-3744
2989,1194,-1083,-3807
2990,1275,-996,-3807
2991,1353,-996,-3864
2992,1353,-1044,-3939
2993,1353,-1077,-3939
2994,1353,-1077,-3864
2995,1308,-1077,-3864
2996,1386,-1077,-3879
2997,1386,-1044,-3828
2998,1347,-1107,-3828
2999,1347,-1107,-3933
3000,1266,-1047,-3933
3001,1413,-1047,-3843
3002,1413,-1008,-3849
3003,1314,-1005,-3849
3004,1314,-1005,-3804
3005,1227,-969,-3804
3006,1332,-969,-3693
3007,1332,-1026,-3732
3008,1320,-990,-3732
3009,1320,-990,-3774
3010,1335,-981,-3774
3011,1416,-981,-3759
3012,1416,-993,-3693
3013,1296,-993,-3693
3014,1296,-1011,-3759
3015,1326,-894,-3759
3016,1329,-894,-3693
3017,1329,-1056,-3807
3018,1224,-1056,-3807
3019,1224,-960,-3759
3020,1137,-1035,-3759
3021,1227,-1035,-3699
3022,1227,-993,-3693
3023,1329,-993,-3693
3024,1329,-939,-3648
3025,1242,-942,-3648
3026,1089,-942,-3672
3027,1089,-963,-3684
3028,1125,-963,-3684
3029,1125,-1023,-3813
3030,1332,-981,-3813
3031,1338,-981,-3822
3032,1338,-1002,-3858
3033,1389,-1002,-3858
3034,1389,-957,-3834
3035,1446,-942,-3834
3036,1557,-942,-3714
3037,1557,-921,-3732
3038,1470,-921,-3732
3039,1470,-972,-3732
3040,1410,-1020,-3732
3041,1422,-1020,-3753
3042,1422,-987,-3900
3043,1422,-987,-3900
3044,1422,-1020,-3870
3045,1482,-867,-3870
3046,1575,-867,-3723
3047,1575,-822,-3723
3048,1428,-822,-3699
3049,1428,-867,-3813
3050,1308,-807,-3813
3051,1275,-807,-3729
3052,1275,-801,-3729
3053,1332,-801,-3813
3054,1332,-858,-3798
3055,1359,-849,-3798
3056,1338,-849,-3864
3057,1338,-783,-3864
3058,1380,-783,-3813
3059,1380,-684,-3804
3060,1386,-711,-3804
3061,1413,-711,-3813
3062,1413,-606,-3813
3063,1386,-606,-3729
3064,1386,-714,-3837
3065,1485,-708,-3837
3066,1524,-708,-3945
3067,1524,-753,-3945
3068,1635,-753,-3990
3069,1635,-735,-3933
3070,1560,-789,-3933
3071,1560,-789,-3924
3072,1437,-801,-3924
3073,1380,-801,-3954
3074,1380,-828,-3924
3075,1317,-834,-3924
3076,1317,-834,-3819
3077,1302,-957,-3819
3078,1221,-957,-3792
3079,1221,-942,-3762
3080,1209,-885,-3762
3081,1209,-885,-3543
3082,1164,-900,-3543
3083,1104,-900,-3516
3084,1104,-843,-3456
3085,951,-897,-3456
3086,951,-897,-3321
3087,915,-903,-3321
3088,1059,-903,-3426
3089,1059,-1017,-3594
3090,1329,-969,-3594
3091,1329,-969,-3669
3092,1395,-1017,-3669
3093,1401,-1017,-3798
3094,1401,-987,-3915
3095,1398,-1023,-3915
3096,1398,-1023,-4074
3097,1482,-1125,-4074
3098,1671,-1125,-4089
3099,1671,-1119,-4083
3100,1551,-1071,-4083
3101,1551,-1071,-3909
3102,1560,-924,-3909
3103,1482,-924,-3774
3104,1482,-1017,-3657
3105,1440,-948,-3657
3106,1440,-948,-3624
3107,1527,-939,-3624
3108,1497,-939,-3582
3109,1497,-966,-3537
3110,1401,-966,-3537
3111,1401,-999,-3639
3112,1329,-999,-3639
3113,1251,-999,-3699
3114,1251,-1011,-3792
3115,1293,-1011,-3792
3116,1293,-1062,-3819
3117,1281,-1038,-3819
3118,1221,-1038,-3714
3119,1221,-1014,-3723
3120,1158,-1014,-3723
3121,1158,-1041,-3747
3122,1152,-1032,-3747
3123,1263,-1032,-3693
3124,1263,-969,-3699
3125,1152,-969,-3699
3126,1152,-1005,-3609
3127,1104,-1011,-3609
3128,1278,-1011,-3672
3129,1278,-957,-3753
3130,1473,-957,-3753
3131,1473,-900,-3624
3132,1455,-900,-3624
3133,1536,-900,-3627
3134,1536,-897,-3492
3135,1653,-897,-3492
3136,1653,-906,-3531
3137,1605,-1026,-3531
3138,1647,-1026,-3687
3139,1647,-963,-3687
3140,1791,-963,-3693
3141,1791,-987,-3753
3142,1854,-1044,-3753
3143,1695,-1044,-3888
3144,1695,-1071,-3888
3145,1689,-1071,-3885
3146,1689,-1089,-3939
3147,1554,-1047,-3939
3148,1482,-1047,-3969
3149,1482,-957,-3969
3150,1482,-957,-3930
3151,1482,-960,-3792
3152,1386,-951,-3792
3153,1278,-951,-3774
3154,1278,-888,-3774
3155,1344,-888,-3699
3156,1344,-942,-3648
3157,1293,-900,-3648
3158,1506,-900,-3624
3159,1506,-951,-3624
3160,1470,-951,-3642
3161,1470,-939,-3612
3162,1434,-891,-3612
3163,1434,-891,-3609
3164,1620,-903,-3609
3165,1674,-903,-3594
3166,1674,-975,-3672
3167,1641,-882,-3672
3168,1641,-882,-3684
3169,1611,-996,-3684
3170,1569,-996,-3729
3171,1569,-999,-3729
3172,1479,-1002,-3729
3173,1479,-1002,-3723
3174,1533,-951,-3723
3175,1500,-951,-3678
3176,1500,-1011,-3678
3177,1497,-1023,-3678
3178,1497,-1023,-3669
3179,1506,-1008,-3669
3180,1485,-1008,-3747
3181,1485,-1017,-3858
3182,1500,-975,-3858
3183,1500,-975,-3864
3184,1497,-1047,-3864
3185,1479,-1047,-3909
3186,1479,-1092,-3864
3187,1467,-969,-3864
3188,1467,-969,-3792
3189,1608,-936,-3792
3190,1620,-936,-3774
3191,1620,-1005,-3789
3192,1557,-1032,-3789
3193,1557,-1032,-3732
3194,1542,-984,-3732
3195,1521,-984,-3672
3196,1521,-1041,-3633
3197,1482,-987,-3633
3198,1482,-987,-3663
3199,1572,-987,-3663
3200,1569,-987,-3594
3201,1569,-939,-3564
3202,1506,-939,-3564
3203,1506,-975,-3594
3204,1344,-963,-3594
3205,1515,-963,-3618
3206,1515,-828,-3558
3207,1578,-828,-3558
3208,1578,-993,-3714
3209,1506,-1032,-3714
3210,1707,-1032,-3813
3211,1707,-1074,-3894
3212,1680,-1074,-3894
3213,1680,-1041,-3762
3214,1608,-996,-3762
3215,1629,-996,-3699
3216,1629,-960,-3672
3217,1662,-960,-3672
3218,1662,-1026,-3693
3219,1590,-1056,-3693
3220,1602,-1056,-3669
3221,1602,-1008,-3618
3222,1578,-1008,-3618
3223,1578,-1017,-3618
3224,1221,-1017,-3618
3225,1383,-1017,-3564
3226,1383,-990,-3477
3227,1536,-990,-3477
3228,1536,-906,-3516
3229,1416,-1059,-3516
3230,1209,-1059,-3597
3231,1209,-1041,-3594
3232,1296,-1041,-3594
3233,1296,-990,-3672
3234,1377,-1023,-3672
3235,1296,-1023,-3753
3236,1296,-1044,-3753
3237,1359,-1044,-3747
3238,1359,-942,-3663
3239,1365,-942,-3663
3240,1317,-942,-3624
3241,1317,-912,-3624
3242,1329,-912,-3567
3243,1329,-933,-3582
3244,1464,-966,-3582
3245,1446,-966,-3612
3246,1446,-993,-3612
3247,1431,-993,-3699
3248,1431,-975,-3642
3249,1539,-921,-3642
3250,1656,-921,-3582
3251,1656,-1014,-3582
3252,1659,-1014,-3714
3253,1659,-1014,-3708
3254,1698,-972,-3708
3255,1716,-972,-3717
3256,1716,-999,-3717
3257,1623,-999,-3738
3258,1623,-966,-3624
3259,1647,-867,-3624
3260,1647,-867,-3588
3261,1713,-867,-3588
3262,1713,-867,-3537
3263,1713,-897,-3516
3264,1818,-870,-3516
3265,1818,-870,-3558
3266,1782,-930,-3558
3267,1656,-930,-3588
3268,1656,-981,-3648
3269,1692,-972,-3648
3270,1692,-972,-3603
3271,1785,-894,-3603
3272,1824,-894,-3492
3273,1824,-885,-3564
3274,1779,-915,-3564
3275,1779,-915,-3594
3276,1764,-1017,-3594
3277,1704,-1017,-3612
3278,1704,-1005,-3642
3279,1665,-1008,-3642
3280,1665,-1008,-3708
3281,1677,-993,-3708
3282,1680,-993,-3747
3283,1680,-1002,-3699
3284,1605,-990,-3699
3285,1605,-990,-3663
3286,1554,-1008,-3663
3287,1626,-1008,-3579
3288,1626,-1068,-3759
3289,1584,-1068,-3759
3290,1584,-1068,-3807
3291,1551,-1074,-3807
3292,1458,-1074,-3792
3293,1458,-1047,-3759
3294,1470,-1047,-3759
3295,1470,-999,-3714
3296,1389,-987,-3714
3297,1371,-987,-3708
3298,1371,-984,-3687
3299,1314,-984,-3687
3300,1314,-1041,-3657
3301,1311,-993,-3657
3302,1359,-993,-3627
3303,1359,-984,-3738
3304,1362,-984,-3738
3305,1362,-1056,-3672
3306,1344,-1056,-3672
3307,1368,-1056,-3714
3308,1368,-969,-3723
3309,1725,-969,-3723
3310,1725,-1020,-3753
3311,1800,-1056,-3753
3312,1704,-1056,-3783
3313,1704,-1014,-3744
3314,1503,-1014,-3744
3315,1503,-1053,-3903
3316,1326,-1104,-3903
3317,1107,-1104,-3969
3318,1107,-1128,-3969
3319,1269,-1128,-3939
3320,1269,-1017,-3933
3321,1677,-984,-3933
3322,1548,-984,-3909
3323,1548,-1092,-3909
3324,1017,-1092,-3930
3325,1017,-1143,-3900
3326,990,-1023,-3900
3327,1284,-1023,-3762
3328,1284,-1002,-3762
3329,1230,-1002,-3768
3330,1230,-1023,-3717
3331,1122,-1041,-3717
3332,1053,-1041,-3642
3333,1053,-981,-3642
3334,1008,-981,-3552
3335,1008,-1065,-3531
3336,1170,-1026,-3531
3337,1500,-1026,-3516
3338,1500,-1008,-3516
3339,1371,-1008,-3522
3340,1371,-999,-3567
3341,1251,-1086,-3567
3342,1377,-1086,-3729
3343,1377,-1089,-3729
3344,1395,-1089,-3813
3345,1395,-1140,-3843
3346,1488,-1020,-3843
3347,1467,-1020,-3768
3348,1467,-1053,-3768
3349,1284,-1053,-3849
3350,1284,-993,-3732
3351,1440,-951,-3732
3352,1431,-951,-3717
3353,1431,-990,-3717
3354,1317,-990,-3828
3355,1317,-1071,-3948
3356,1209,-1119,-3948
3357,1416,-1119,-3885
3358,1416,-1149,-3885
3359,1347,-1149,-3918
3360,1347,-1149,-3732
3361,1176,-1092,-3732
3362,1233,-1092,-3708
3363,1233,-1032,-3708
3364,1224,-1032,-3597
3365,1224,-1005,-3549
3366,1119,-1014,-3549
3367,1170,-1014,-3363
3368,1170,-861,-3363
3369,1359,-861,-3417
3370,1359,-984,-3558
3371,1215,-1206,-3558
3372,1215,-1206,-3783
3373,1173,-1425,-3783
3374,1278,-1425,-3984
3375,1278,-1434,-3933
3376,1431,-1110,-3933
3377,1431,-1110,-3753
3378,1680,-1005,-3753
3379,948,-1005,-3777
3380,948,-1770,-4074
3381,873,-1494,-4074
3382,873,-1494,-3939
3383,1278,-1317,-3939
3384,1224,-1317,-3657
3385,1224,-1251,-3627
3386,1248,-1023,-3627
3387,1248,-1023,-3594
3388,1044,-1365,-3594
3389,1005,-1365,-3579
3390,1005,-1299,-3522
3391,1101,-1470,-3522
3392,1101,-1470,-3567
3393,1320,-1272,-3567
3394,1170,-1272,-3594
3395,1170,-1281,-3693
3396,963,-1311,-3693
3397,963,-1311,-3603
3398,1380,-1320,-3603
3399,1284,-1320,-3537
3400,1284,-1494,-3819
3401,1194,-1512,-3819
3402,1194,-1512,-3918
3403,1320,-1359,-3918
3404,1113,-1359,-3924
3405,1113,-1584,-3900
3406,1017,-1350,-3900
3407,1017,-1350,-3654
3408,1578,-1068,-3654
3409,1104,-1068,-3537
3410,1104,-1659,-3894
3411,690,-1659,-3894
3412,690,-1875,-4005
3413,1479,-1224,-4005
3414,1242,-1224,-3594
3415,1242,-1383,-3552
3416,1077,-1383,-3552
3417,1077,-1521,-3582
3418,1110,-1446,-3582
3419,1176,-1446,-3558
3420,1176,-1368,-3432
3421,1143,-1368,-3432
3422,1143,-1338,-3492
3423,1041,-1476,-3492
3424,1038,-1476,-3588
3425,1038,-1524,-3492
3426,1251,-1524,-3492
3427,1251,-1311,-3258
3428,1347,-1353,-3258
3429,1155,-1353,-3243
3430,1155,-1302,-3333
3431,1230,-1302,-3333
3432,1230,-1419,-3672
3433,1119,-1524,-3672
3434,744,-1524,-3768
3435,744,-1725,-3858
3436,1140,-1725,-3858
3437,1140,-1371,-3753
3438,969,-1392,-3753
3439,795,-1392,-3744
3440,795,-1434,-3762
3441,774,-1434,-3762
3442,774,-1470,-3852
3443,621,-1536,-3852
3444,735,-1536,-3789
3445,735,-1374,-3789
3446,675,-1374,-3708
3447,675,-1338,-3564
3448,672,-1203,-3564
3449,879,-1203,-3348
3450,879,-1116,-3348
3451,750,-1116,-3372
3452,750,-1254,-3441
3453,1041,-1146,-3441
3454,1212,-1146,-3438
3455,1212,-1167,-3438
3456,1095,-1167,-3537
3457,1095,-1242,-3624
3458,1233,-1176,-3624
3459,1353,-1176,-3738
3460,1353,-1047,-3738
3461,1188,-1047,-3717
3462,1188,-1059,-3774
3463,1269,-1026,-3774
3464,1269,-1026,-3693
3465,1089,-993,-3693
3466,1110,-993,-3843
3467,1110,-996,-3849
3468,1173,-972,-3849
3469,1173,-972,-3918
3470,1032,-1104,-3918
3471,1014,-1104,-4089
3472,1014,-906,-3978
3473,1131,-864,-3978
3474,1131,-864,-3903
3475,1044,-849,-3903
3476,1092,-849,-3888
3477,1092,-849,-3762
3478,1209,-819,-3762
3479,1209,-819,-3807
3480,1293,-933,-3807
3481,1089,-933,-3903
3482,1089,-957,-4059
3483,1365,-1038,-4059
3484,1365,-1038,-4230
3485,1308,-1146,-4230
3486,1389,-1146,-4374
3487,1389,-990,-4329
3488,1395,-987,-4329
3489,1395,-987,-4206
3490,1092,-957,-4206
3491,945,-957,-4098
3492,945,-993,-4068
3493,918,-903,-4068
3494,918,-903,-3960
3495,990,-933,-3960
3496,795,-933,-3909
3497,795,-828,-3798
3498,831,-768,-3798
3499,831,-768,-3768
3500,756,-771,-3768
3501,945,-771,-3744
3502,945,-717,-3759
3503,903,-717,-3759
3504,903,-762,-3744
3505,1068,-726,-3744
3506,1191,-726,-3678
3507,1191,-690,-3699
3508,1329,-690,-3699
3509,1329,-651,-3732
3510,1227,-738,-3732
3511,1482,-738,-3894
3512,1482,-765,-3954
3513,1428,-765,-3954
3514,1428,-681,-3945
3515,1608,-732,-3945
3516,1533,-732,-3924
3517,1533,-627,-3819
3518,1518,-627,-3819
3519,1518,-612,-3858
3520,1440,-765,-3858
3521,1467,-765,-3918
3522,1467,-759,-3990
3523,1485,-759,-3990
3524,1485,-780,-3870
3525,1404,-786,-3870
3526,1281,-786,-3963
3527,1281,-693,-3885
3528,1251,-693,-3885
3529,1251,-699,-3984
3530,987,-585,-3984
3531,945,-585,-3834
3532,945,-648,-3834
3533,993,-648,-3834
3534,993,-543,-3753
3535,975,-603,-3753
3536,993,-603,-3807
3537,993,-600,-3843
3538,984,-600,-3843
3539,984,-759,-3915
3540,1215,-819,-3915
3541,1200,-819,-4014
3542,1200,-843,-4014
3543,1230,-843,-4173
3544,1230,-789,-4251
3545,993,-828,-4251
3546,1113,-828,-4356
3547,1113,-957,-4356
3548,1332,-957,-4446
3549,1332,-879,-4320
3550,1482,-831,-4320
3551,1278,-831,-4221
3552,1278,-777,-4221
3553,1326,-777,-4044
3554,1326,-822,-3990
3555,1293,-777,-3990
3556,1293,-777,-3849
3557,1440,-675,-3849
3558,1638,-675,-3717
3559,1638,-636,-3768
3560,1611,-612,-3768
3561,1611,-612,-3666
3562,1515,-612,-3666
3563,1314,-612,-3528
3564,1314,-573,-3552
3565,1176,-771,-3552
3566,1176,-771,-3516
3567,1182,-645,-3516
3568,1206,-645,-3528
3569,1206,-744,-3642
3570,1059,-756,-3642
3571,1059,-756,-3738
3572,1077,-975,-3738
3573,1038,-975,-3948
3574,1038,-828,-3993
3575,1059,-1068,-3993
3576,1059,-1068,-4170
3577,924,-879,-4170
3578,1023,-879,-3993
3579,1023,-855,-3900
3580,1026,-744,-3900
3581,1026,-744,-3738
3582,1059,-852,-3738
3583,1056,-852,-3963
3584,1056,-792,-4023
3585,1290,-819,-4023
3586,1290,-819,-3978
3587,1401,-690,-3978
3588,1386,-690,-3678
3589,1386,-612,-3543
3590,1611,-612,-3543
3591,1611,-453,-3423
3592,1695,-489,-3423
3593,1620,-489,-3513
3594,1620,-720,-3579
3595,1887,-720,-3579
3596,1887,-738,-3678
3597,1878,-771,-3678
3598,1791,-771,-3753
3599,1791,-732,-3819
3600,1713,-732,-3819
3601,1713,-705,-3858
3602,1401,-816,-3858
3603,1326,-816,-3960
3604,1326,-789,-3975
3605,1395,-789,-3975
3606,1395,-870,-3978
3607,1143,-813,-3978
3608,1008,-813,-3873
3609,1008,-816,-3894
3610,906,-816,-3894
3611,906,-735,-3870
3612,1023,-651,-3870
3613,966,-651,-3744
3614,966,-714,-3819
3615,819,-714,-3819
3616,819,-702,-3768
3617,1020,-618,-3768
3618,1092,-618,-3672
3619,1092,-675,-3672
3620,879,-675,-3609
3621,879,-738,-3609
3622,1083,-639,-3609
3623,1317,-639,-3654
3624,1317,-729,-3654
3625,1368,-729,-3747
3626,1368,-756,-3798
3627,1506,-768,-3798
3628,1566,-768,-3888
3629,1566,-711,-3888
3630,1455,-711,-3975
3631,1455,-801,-4053
3632,1656,-756,-4053
3633,1578,-756,-4023
3634,1578,-822,-4023
3635,1578,-822,-4023
3636,1578,-714,-3960
3637,1509,-741,-3960
3638,1509,-741,-3924
3639,1398,-702,-3924
3640,1410,-702,-3903
3641,1410,-630,-3819
3642,1311,-717,-3819
3643,1311,-717,-3849
3644,1299,-726,-3849
3645,1314,-726,-3858
3646,1314,-705,-3864
3647,1269,-645,-3864
3648,1269,-645,-3774
3649,1293,-642,-3774
3650,1290,-642,-3783
3651,1290,-618,-3762
3652,1257,-687,-3762
3653,1257,-687,-3708
3654,1263,-702,-3708
3655,1215,-702,-3714
3656,1215,-666,-3753
3657,1257,-642,-3753
3658,1257,-642,-3762
3659,1224,-681,-3762
3660,1293,-681,-3915
3661,1293,-705,-3963
3662,1275,-750,-3963
3663,1275,-750,-3954
3664,1308,-798,-3954
3665,1320,-798,-3960
3666,1320,-654,-3873
3667,1386,-654,-3873
3668,1386,-705,-3939
3669,1371,-759,-3939
3670,1326,-759,-3933
3671,1326,-708,-3864
3672,1224,-708,-3864
3673,1224,-732,-3858
3674,1224,-663,-3858
3675,1422,-663,-3714
3676,1422,-660,-3708
3677,1221,-660,-3708
3678,1221,-696,-3732
3679,1188,-777,-3732
3680,1197,-777,-3759
3681,1197,-717,-3870
3682,1164,-717,-3870
3683,1164,-831,-3894
3684,1212,-759,-3894
3685,1194,-759,-3915
3686,1194,-747,-3852
3687,1212,-747,-3852
3688,1212,-732,-3870
3689,1245,-807,-3870
3690,1347,-807,-3870
3691,1347,-795,-3843
3692,1215,-795,-3843
3693,1215,-750,-3792
3694,1284,-720,-3792
3695,1245,-720,-3708
3696,1245,-756,-3717
3697,1347,-756,-3717
3698,1347,-726,-3753
3699,1329,-744,-3753
3700,1311,-744,-3762
3701,1311,-753,-3744
3702,1422,-753,-3744
3703,1422,-759,-3864
3704,1389,-810,-3864
3705,1371,-810,-3837
3706,1371,-867,-4023
3707,1470,-867,-4023
3708,1470,-906,-3975
3709,1386,-828,-3975
3710,1371,-828,-3984
3711,1371,-855,-3993
3712,1260,-855,-3993
3713,1260,-834,-3915
3714,1206,-882,-3915
3715,1233,-882,-3885
3716,1233,-804,-3885
3717,1131,-804,-3852
3718,1131,-732,-3702
3719,1152,-756,-3702
3720,1131,-756,-3672
3721,1131,-741,-3672
3722,1143,-741,-3627
3723,1143,-795,-3633
3724,1227,-780,-3633
3725,1251,-780,-3693
3726,1251,-747,-3693
3727,1263,-747,-3672
3728,1263,-711,-3633
3729,1413,-699,-3633
3730,1359,-699,-3624
3731,1359,-657,-3624
3732,1365,-657,-3582
3733,1365,-627,-3603
3734,1320,-717,-3603
3735,1320,-717,-3699
3736,1311,-732,-3699
3737,1188,-732,-3762
3738,1188,-744,-3837
3739,1380,-732,-3837
3740,1380,-732,-3975
3741,1290,-795,-3975
3742,1311,-795,-3975
3743,1311,-738,-3930
3744,1266,-759,-3930
3745,1266,-759,-3990
3746,1266,-750,-3990
3747,1233,-750,-3984
3748,1233,-777,-4074
3749,1365,-786,-4074
3750,1365,-786,-4035
3751,1359,-684,-4035
3752,1332,-684,-3870
3753,1332,-708,-3798
3754,1284,-636,-3798
3755,1284,-636,-3789
3756,1260,-654,-3789
3757,1389,-654,-3894
3758,1389,-717,-3873
3759,1386,-687,-3873
3760,1386,-687,-3852
3761,1377,-684,-3852
3762,1350,-684,-3732
3763,1350,-642,-3684
3764,1416,-705,-3684
3765,1416,-705,-3774
3766,1419,-792,-3774
3767,1497,-792,-3774
3768,1497,-780,-3879
3769,1617,-846,-3879
3770,1617,-846,-4050
3771,1548,-789,-4050
3772,1623,-789,-3933
3773,1623,-771,-3963
3774,1584,-789,-3963
3775,1584,-789,-3879
3776,1566,-693,-3879
3777,1491,-693,-3834
3778,1491,-669,-3723
3779,1542,-594,-3723
3780,1542,-594,-3558
3781,1521,-546,-3558
3782,1497,-546,-3546
3783,1497,-525,-3468
3784,1761,-525,-3468
3785,1761,-570,-3621
3786,1608,-702,-3621
3787,1623,-702,-3699
3788,1623,-660,-3708
3789,1551,-660,-3708
3790,1551,-627,-3732
3791,1359,-696,-3732
3792,1395,-696,-3789
3793,1395,-696,-3687
3794,1437,-696,-3687
3795,1437,-741,-3678
3796,1299,-831,-3678
3797,1281,-831,-3804
3798,1281,-795,-3933
3799,1362,-795,-3933
3800,1362,-855,-4023
3801,1389,-813,-4023
3802,1308,-813,-3870
3803,1308,-771,-3777
3804,1371,-771,-3777
3805,1371,-747,-3852
3806,1197,-822,-3852
3807,1140,-822,-3864
3808,1140,-801,-3828
3809,1110,-801,-3828
3810,1110,-801,-3819
3811,1242,-762,-3819
3812,1293,-762,-3723
3813,1293,-681,-3657
3814,1353,-681,-3657
3815,1353,-657,-3588
3816,1302,-690,-3588
3817,1200,-690,-3573
3818,1200,-738,-3597
3819,1488,-738,-3597
3820,1488,-660,-3672
3821,1509,-729,-3672
3822,1572,-729,-3723
3823,1572,-726,-3744
3824,1578,-726,-3744
3825,1578,-678,-3708
3826,1524,-741,-3708
3827,1602,-741,-3774
3828,1602,-813,-3918
3829,1704,-813,-3918
3830,1704,-852,-3999
3831,1695,-789,-3999
3832,1500,-789,-3960
3833,1500,-714,-3870
3834,1572,-714,-3870
3835,1572,-669,-3813
3836,1641,-801,-3813
3837,1608,-801,-3843
3838,1608,-750,-3804
3839,1611,-750,-3804
3840,1611,-675,-3693
3841,1527,-666,-3693
3842,1497,-666,-3633
3843,1497,-687,-3633
3844,1710,-687,-3663
3845,1710,-585,-3573
3846,1704,-642,-3573
3847,1629,-642,-3624
3848,1629,-711,-3624
3849,1677,-711,-3759
3850,1677,-699,-3687
3851,1665,-654,-3687
3852,1569,-654,-3702
3853,1569,-729,-3702
3854,1572,-729,-3714
3855,1572,-693,-3708
3856,1500,-729,-3708
3857,1470,-729,-3747
3858,1470,-807,-3747
3859,1464,-807,-3918
3860,1464,-843,-3924
3861,1335,-804,-3924
3862,1296,-804,-3873
3863,1296,-756,-3873
3864,1263,-756,-3822
3865,1263,-798,-3783
3866,1278,-813,-3783
3867,1278,-813,-3699
3868,1308,-753,-3699
3869,1248,-753,-3762
3870,1248,-840,-3843
3871,1314,-783,-3843
3872,1314,-783,-3777
3873,1464,-750,-3777
3874,1503,-750,-3702
3875,1503,-804,-3768
3876,1527,-768,-3768
3877,1527,-768,-3804
3878,1620,-765,-3804
3879,1539,-765,-3738
3880,1539,-792,-3798
3881,1491,-870,-3798
3882,1491,-870,-3837
3883,1479,-783,-3837
3884,1557,-783,-3804
3885,1557,-789,-3738
3886,1452,-684,-3738
3887,1452,-684,-3627
3888,1515,-765,-3627
3889,1383,-765,-3609
3890,1383,-762,-3648
3891,1380,-762,-3648
3892,1380,-762,-3648
3893,1344,-729,-3648
3894,1410,-729,-3633
3895,1410,-762,-3669
3896,1383,-798,-3669
3897,1383,-798,-3768
3898,1329,-855,-3768
3899,1401,-855,-3849
3900,1401,-945,-3984
3901,1395,-945,-3984
3902,1395,-987,-4008
3903,1404,-882,-4008
3904,1311,-882,-4119
3905,1311,-870,-4149
3906,1083,-870,-4149
3907,1083,-843,-4104
3908,1164,-753,-4104
3909,1293,-753,-3960
3910,1293,-729,-3819
3911,1110,-729,-3819
3912,1110,-663,-3678
3913,1284,-642,-3678
3914,1239,-642,-3699
3915,1239,-732,-3654
3916,1233,-732,-3654
3917,1233,-675,-3642
3918,1533,-645,-3642
3919,1500,-645,-3567
3920,1500,-783,-3699
3921,1569,-783,-3699
3922,1569,-849,-3849
3923,1470,-837,-3849
3924,1368,-837,-3807
3925,1368,-996,-3888
3926,1386,-996,-3888
3927,1386,-771,-3894
3928,1326,-804,-3894
3929,1377,-804,-3903
3930,1377,-756,-3864
3931,1245,-756,-3864
3932,1245,-843,-3804
3933,1227,-846,-3804
3934,1473,-846,-3759
3935,1473,-642,-3759
3936,1320,-642,-3738
3937,1320,-732,-3762
3938,1245,-756,-3762
3939,1383,-756,-3819
3940,1383,-867,-3819
3941,1200,-867,-3933
3942,1200,-822,-3879
3943,1224,-888,-3879
3944,1395,-888,-3885
3945,1395,-804,-3885
3946,1230,-804,-3918
3947,1230,-921,-3939
3948,1140,-924,-3939
3949,1212,-924,-3930
3950,1212,-792,-3930
3951,1458,-792,-3903
3952,1458,-837,-3960
3953,1470,-795,-3960
3954,1269,-795,-3873
3955,1269,-795,-3873
3956,1161,-795,-3774
3957,1161,-762,-3702
3958,1347,-660,-3702
3959,1431,-660,-3678
3960,1431,-636,-3678
3961,1482,-636,-3573
3962,1482,-768,-3618
3963,1398,-744,-3618
3964,1572,-744,-3708
3965,1572,-867,-3708
3966,1413,-867,-3837
3967,1413,-777,-3822
3968,1533,-855,-3822
3969,1533,-855,-3834
3970,1533,-861,-3834
3971,1593,-861,-3747
3972,1593,-792,-3639
3973,1686,-867,-3639
3974,1686,-867,-3714
3975,1542,-867,-3714
3976,1617,-867,-3693
3977,1617,-873,-3747
3978,1680,-792,-3747
3979,1680,-792,-3747
3980,1758,-777,-3747
3981,1671,-777,-3639
3982,1671,-891,-3627
3983,1641,-798,-3627
3984,1641,-798,-3537
3985,1761,-750,-3537
3986,1662,-750,-3549
3987,1662,-792,-3582
3988,1482,-789,-3582
3989,1482,-789,-3603
3990,1338,-837,-3603
3991,1233,-837,-3654
3992,1233,-936,-3777
3993,1299,-840,-3777
3994,1299,-840,-3714
3995,1437,-870,-3714
3996,1284,-870,-3843
3997,1284,-891,-3783
3998,1281,-882,-3783
3999,1281,-882,-3678
4000,1227,-885,-3678
4001,1104,-885,-3618
4002,1104,-771,-3531
4003,1251,-771,-3531
4004,1251,-759,-3447
4005,1317,-801,-3447
4006,1068,-801,-3471
4007,1068,-840,-3531
4008,1197,-840,-3531
4009,1197,-846,-3513
4010,1128,-843,-3513
4011,1296,-843,-3678
4012,1296,-879,-3813
4013,1473,-879,-3813
4014,1473,-849,-3903
4015,1596,-846,-3903
4016,1782,-846,-4044
4017,1782,-861,-4098
4018,1947,-861,-4098
4019,1947,-840,-4110
4020,1827,-798,-4110
4021,1758,-798,-3990
4022,1758,-705,-3804
4023,1809,-705,-3804
4024,1809,-777,-3684
4025,1830,-624,-3684
4026,1734,-624,-3621
4027,1734,-657,-3669
4028,1794,-657,-3669
4029,1794,-618,-3702
4030,1740,-720,-3702
4031,1800,-720,-3762
4032,1800,-681,-3864
4033,1707,-681,-3864
4034,1707,-768,-3879
4035,1773,-714,-3879
4036,1587,-714,-3822
4037,1587,-759,-3822
4038,1539,-759,-3804
4039,1539,-717,-3774
4040,1449,-786,-3774
4041,1245,-786,-3753
4042,1245,-828,-3753
4043,1164,-828,-3888
4044,1164,-798,-3930
4045,1035,-891,-3930
4046,1017,-891,-3975
4047,1017,-918,-3975
4048,1077,-918,-4005
4049,1077,-951,-3975
4050,1215,-906,-3975
4051,1503,-906,-3903
4052,1503,-879,-3903
4053,1182,-879,-3834
4054,1182,-924,-3702
4055,1350,-732,-3702
4056,1431,-732,-3642
4057,1431,-696,-3642
4058,1470,-696,-3528
4059,1470,-687,-3468
4060,1527,-648,-3468
4061,1509,-648,-3411
4062,1509,-720,-3411
4063,1515,-720,-3522
4064,1515,-783,-3624
4065,1464,-720,-3624
4066,1500,-720,-3654
4067,1500,-762,-3654
4068,1320,-762,-3759
4069,1320,-810,-3798
4070,1515,-798,-3798
4071,1515,-798,-3930
4072,1509,-837,-3930
4073,1578,-837,-3990
4074,1578,-846,-4164
4075,1734,-813,-4164
4076,1734,-813,-4164
4077,1740,-936,-4164
4078,1644,-936,-4149
4079,1644,-882,-4074
4080,1617,-801,-4074
4081,1617,-801,-3822
4082,1797,-765,-3822
4083,1686,-765,-3717
4084,1686,-741,-3564
4085,1767,-654,-3564
4086,1767,-654,-3468
4087,1665,-750,-3468
4088,1569,-750,-3441
4089,1569,-780,-3558
4090,1467,-762,-3558
4091,1467,-762,-3516
4092,1635,-813,-3516
4093,1608,-813,-3624
4094,1608,-909,-3699
4095,1446,-960,-3699
4096,1446,-960,-3813
4097,1377,-969,-3813
4098,1386,-969,-3762
4099,1386,-972,-3768
4100,1362,-948,-3768
4101,1362,-948,-3717
4102,1458,-894,-3717
4103,1428,-894,-3552
4104,1428,-798,-3447
4105,1587,-786,-3447
4106,1587,-786,-3411
4107,1590,-768,-3411
4108,1635,-768,-3357
4109,1635,-798,-3441
4110,1626,-798,-3441
4111,1626,-879,-3426
4112,1854,-759,-3426
4113,2037,-759,-3462
4114,2037,-684,-3426
4115,1755,-684,-3426
4116,1755,-840,-3663
4117,1524,-894,-3663
4118,1584,-894,-3714
4119,1584,-993,-3744
4120,1653,-993,-3744
4121,1653,-948,-3837
4122,1674,-930,-3837
4123,1620,-930,-3792
4124,1620,-1056,-3915
4125,1515,-1056,-3915
4126,1515,-1194,-3903
4127,1641,-1074,-3903
4128,1878,-1074,-3870
4129,1878,-990,-3843
4130,1677,-990,-3843
4131,1677,-1107,-3843
4132,1431,-993,-3843
4133,1464,-993,-3702
4134,1464,-1092,-3783
4135,1509,-1092,-3783
4136,1509,-1113,-3792
4137,1428,-1041,-3792
4138,1410,-1041,-3732
4139,1410,-1056,-3732
4140,1233,-1056,-3732
4141,1233,-1101,-3663
4142,1290,-993,-3663
4143,1410,-993,-3708
4144,1410,-969,-3702
4145,1344,-969,-3702
4146,1344,-1008,-3678
4147,1278,-1110,-3678
4148,1215,-1110,-3657
4149,1215,-975,-3657
4150,1455,-975,-3678
4151,1455,-915,-3558
4152,1278,-1086,-3558
4153,1350,-1086,-3522
4154,1350,-1002,-3522
4155,1464,-1002,-3522
4156,1464,-1023,-3441
4157,1749,-999,-3441
4158,1725,-999,-3579
4159,1725,-1125,-3579
4160,1488,-1125,-3693
4161,1488,-1041,-3609
4162,1542,-1086,-3609
4163,1557,-1086,-3639
4164,1557,-1071,-3639
4165,1791,-1071,-3678
4166,1791,-1089,-3804
4167,1782,-969,-3804
4168,1518,-969,-3774
4169,1518,-1059,-3774
4170,1593,-1059,-3843
4171,1593,-966,-3783
4172,1629,-921,-3783
4173,1524,-921,-3798
4174,1524,-789,-3798
4175,1608,-789,-3699
4176,1608,-960,-3864
4177,1497,-1041,-3864
4178,1353,-1041,-3903
4179,1353,-1038,-3903
4180,1260,-1038,-4020
4181,1260,-912,-3747
4182,1326,-879,-3747
4183,1137,-879,-3684
4184,1137,-873,-3684
4185,1131,-873,-3663
4186,1131,-888,-3633
4187,1359,-936,-3633
4188,1335,-936,-3579
4189,1335,-918,-3579
4190,1014,-918,-3813
4191,1014,-1089,-3864
4192,1107,-1059,-3864
4193,1680,-1059,-3774
4194,1680,-942,-3774
4195,1620,-942,-3837
4196,1620,-1098,-3903
4197,1200,-1122,-3903
4198,1200,-1122,-3834
4199,1140,-1116,-3834
4200,1122,-1116,-3774
4201,1122,-1047,-3732
4202,1083,-1098,-3732
4203,1083,-1098,-3978
4204,1383,-1299,-3978
4205,957,-1299,-4230
4206,957,-1350,-4275
4207,870,-1413,-4275
4208,870,-1413,-4356
4209,852,-1362,-4356
4210,1086,-1362,-4230
4211,1086,-1296,-4179
4212,1506,-1206,-4179
4213,1506,-1206,-4044
4214,1734,-1128,-4044
4215,1584,-1128,-3930
4216,1584,-1149,-3918
4217,1278,-1194,-3918
4218,1278,-1194,-3774
4219,1176,-1113,-3774
4220,1662,-1113,-3702
4221,1662,-1002,-3654
4222,1527,-1098,-3654
4223,1527,-1098,-3834
4224,1482,-1158,-3834
4225,1020,-1158,-3960
4226,1020,-1230,-3945
4227,1251,-1272,-3945
4228,1251,-1272,-3888
4229,1164,-1353,-3888
4230,954,-1353,-3864
4231,954,-1320,-3864
4232,990,-1305,-3864
4233,990,-1305,-3702
4234,951,-1224,-3702
4235,714,-1224,-3531
4236,714,-1290,-3381
4237,819,-1290,-3381
4238,819,-1266,-3303
4239,804,-1278,-3303
4240,1113,-1278,-3231
4241,1113,-1254,-3060
4242,810,-1254,-3060
4243,810,-1287,-3087
4244,645,-1209,-3087
4245,1068,-1209,-3201
4246,1068,-1224,-3276
4247,1110,-1224,-3276
4248,1110,-1317,-3111
4249,1068,-1263,-3111
4250,1383,-1263,-3192
4251,1383,-1248,-3378
4252,1107,-1248,-3378
4253,1107,-1254,-3441
4254,1122,-1251,-3441
4255,1419,-1251,-3357
4256,1419,-1179,-3357
4257,1647,-1179,-3357
4258,1647,-1209,-3447
4259,1395,-1302,-3447
4260,1137,-1302,-3543
4261,1137,-1281,-3582
4262,1320,-1281,-3582
4263,1320,-1272,-3456
4264,1386,-1374,-3456
4265,1458,-1374,-3588
4266,1458,-1305,-3678
4267,1296,-1305,-3678
4268,1296,-1293,-3717
4269,1191,-1434,-3717
4270,1290,-1434,-3747
4271,1290,-1326,-3747
4272,1371,-1326,-3702
4273,1371,-1356,-3702
4274,1413,-1341,-3702
4275,1548,-1341,-3753
4276,1548,-1383,-3753
4277,1314,-1383,-3807
4278,1314,-1368,-3774
4279,1209,-1365,-3774
4280,1554,-1365,-3819
4281,1554,-1368,-3819
4282,1395,-1368,-3804
4283,1395,-1350,-3723
4284,1275,-1371,-3723
4285,1275,-1371,-3738
4286,1401,-1422,-3738
4287,1311,-1422,-3744
4288,1311,-1329,-3693
4289,1422,-1353,-3693
4290,1422,-1353,-3687
4291,1386,-1290,-3687
4292,1335,-1290,-3603
4293,1335,-1299,-3657
4294,1377,-1329,-3657
4295,1377,-1329,-3513
4296,1491,-1209,-3513
4297,1437,-1209,-3537
4298,1437,-1302,-3597
4299,1413,-1260,-3597
4300,1413,-1260,-3684
4301,1401,-1314,-3684
4302,1470,-1314,-3564
4303,1470,-1305,-3633
4304,1335,-1350,-3633
4305,1335,-1350,-3657
4306,1326,-1302,-3657
4307,1380,-1302,-3639
4308,1380,-1230,-3588
4309,1329,-1275,-3588
4310,1329,-1275,-3597
4311,1326,-1269,-3597
4312,1335,-1269,-3594
4313,1335,-1278,-3552
4314,1308,-1251,-3552
4315,1308,-1251,-3558
4316,1380,-1188,-3558
4317,1470,-1188,-3486
4318,1470,-1191,-3507
4319,1383,-1293,-3507
4320,1383,-1293,-3717
4321,1422,-1365,-3717
4322,1410,-1365,-3804
4323,1410,-1332,-3762
4324,1482,-1278,-3762
4325,1482,-1278,-3732
4326,1551,-1314,-3732
4327,1404,-1314,-3744
4328,1404,-1287,-3762
4329,1470,-1314,-3762
4330,1470,-1314,-3828
4331,1326,-1353,-3828
4332,1464,-1353,-3714
4333,1464,-1209,-3573
4334,1485,-1272,-3573
4335,1485,-1272,-3582
4336,1404,-1272,-3582
4337,1437,-1272,-3684
4338,1437,-1344,-3738
4339,1296,-1251,-3738
4340,1296,-1251,-3552
4341,1383,-1260,-3552
4342,1350,-1260,-3594
4343,1350,-1260,-3612
4344,1353,-1218,-3612
4345,1353,-1218,-3597
4346,1398,-1203,-3597
4347,1464,-1203,-3582
4348,1464,-1326,-3639
4349,1452,-1350,-3639
4350,1452,-1350,-3753
4351,1437,-1398,-3753
4352,1533,-1398,-3759
4353,1533,-1290,-3627
4354,1533,-1290,-3627
4355,1533,-1266,-3597
4356,1479,-1185,-3597
4357,1377,-1185,-3507
4358,1377,-1254,-3483
4359,1449,-1254,-3483
4360,1449,-1287,-3579
4361,1410,-1326,-3579
4362,1413,-1326,-3543
4363,1413,-1260,-3456
4364,1554,-1260,-3456
4365,1554,-1170,-3462
4366,1284,-1224,-3462
4367,1284,-1224,-3501
4368,1284,-1218,-3537
4369,1464,-1218,-3537
4370,1464,-1275,-3588
4371,1248,-1308,-3588
4372,1074,-1308,-3612
4373,1074,-1308,-3597
4374,1335,-1308,-3597
4375,1335,-1218,-3594
4376,1332,-1263,-3594
4377,1368,-1263,-3738
4378,1368,-1356,-3888
4379,1317,-1356,-3888
4380,1317,-1356,-3819
4381,1260,-1302,-3819
4382,1296,-1302,-3759
4383,1296,-1239,-3699
4384,1380,-1239,-3699
4385,1380,-1317,-3783
4386,1350,-1242,-3783
4387,1311,-1242,-3693
4388,1311,-1179,-3609
4389,1380,-1179,-3609
4390,1380,-1227,-3693
4391,1311,-1239,-3693
4392,1239,-1239,-3699
4393,1239,-1218,-3702
4394,1389,-1218,-3702
4395,1389,-1212,-3684
4396,1209,-1293,-3684
4397,1170,-1293,-3753
4398,1170,-1194,-3762
4399,1368,-1194,-3762
4400,1368,-1197,-3723
4401,1290,-1191,-3723
4402,1266,-1191,-3702
4403,1266,-1209,-3717
4404,1137,-1209,-3717
4405,1137,-1176,-3753
4406,1119,-1239,-3753
4407,1197,-1239,-3732
4408,1197,-1158,-3693
4409,1176,-1158,-3693
4410,1176,-1197,-3693
4411,1221,-1227,-3693
4412,1131,-1227,-3759
4413,1131,-1212,-3732
4414,1155,-1212,-3732
4415,1155,-1206,-3747
4416,1104,-1278,-3747
4417,1197,-1278,-3813
4418,1197,-1179,-3753
4419,1182,-1179,-3753
4420,1182,-1206,-3813
4421,1140,-1218,-3813
4422,1110,-1218,-3849
4423,1110,-1212,-3777
4424,1245,-1212,-3777
4425,1245,-1152,-3753
4426,1326,-1173,-3753
4427,1194,-1173,-3807
4428,1194,-1218,-3723
4429,1104,-1218,-3723
4430,1104,-1191,-3732
4431,1239,-1149,-3732
4432,1269,-1149,-3708
4433,1269,-1176,-3687
4434,1314,-1176,-3687
4435,1314,-1239,-3693
4436,1143,-1185,-3693
4437,1215,-1185,-3732
4438,1215,-1170,-3669
4439,1281,-1170,-3669
4440,1281,-1152,-3657
4441,1224,-1140,-3657
4442,1239,-1140,-3708
4443,1239,-1191,-3738
4444,1263,-1191,-3738
4445,1263,-1170,-3723
4446,1284,-1149,-3723
4447,1197,-1149,-3747
4448,1197,-1146,-3774
4449,1275,-1146,-3774
4450,1275,-1158,-3783
4451,1293,-1191,-3783
4452,1221,-1191,-3837
4453,1221,-1107,-3837
4454,1242,-1107,-3732
4455,1242,-1194,-3783
4456,1347,-1107,-3783
4457,1503,-1107,-3768
4458,1503,-1116,-3768
4459,1365,-1116,-3729
4460,1365,-1173,-3717
4461,1326,-1119,-3717
4462,1506,-1119,-3762
4463,1506,-1140,-3762
4464,1533,-1140,-3804
4465,1533,-1110,-3768
4466,1416,-1092,-3768
4467,1473,-1092,-3693
4468,1473,-1128,-3693
4469,1404,-1128,-3822
4470,1404,-1116,-3768
4471,1449,-1083,-3768
4472,1275,-1083,-3693
4473,1275,-1092,-3693
4474,1419,-1092,-3663
4475,1419,-1119,-3738
4476,1338,-1137,-3738
4477,1212,-1137,-3702
4478,1212,-1104,-3702
4479,1350,-1104,-3594
4480,1350,-1047,-3639
4481,1332,-1134,-3639
4482,1209,-1134,-3693
4483,1209,-1116,-3693
4484,1293,-1116,-3648
4485,1293,-1104,-3669
4486,1281,-1128,-3669
4487,1245,-1128,-3663
4488,1245,-1146,-3663
4489,1332,-1146,-3753
4490,1332,-1101,-3657
4491,1359,-1143,-3657
4492,1404,-1143,-3669
4493,1404,-1152,-3669
4494,1437,-1152,-3693
4495,1437,-1077,-3753
4496,1458,-1098,-3753
4497,1458,-1098,-3672
4498,1467,-1143,-3672
4499,1482,-1143,-3747
4500,1482,-1158,-3708
4501,1491,-1086,-3708
4502,1491,-1086,-3813
4503,1437,-1146,-3813
4504,1434,-1146,-3678
4505,1434,-1092,-3717
4506,1458,-1077,-3717
4507,1458,-1077,-3759
4508,1404,-1137,-3759
4509,1320,-1137,-3834
4510,1320,-1152,-3783
4511,1368,-1098,-3783
4512,1368,-1098,-3714
4513,1338,-1089,-3714
4514,1296,-1089,-3657
4515,1296,-1041,-3687
4516,1284,-1119,-3687
4517,1284,-1119,-3762
4518,1227,-1086,-3762
4519,1257,-1086,-3657
4520,1257,-1125,-3687
4521,1296,-1065,-3687
4522,1296,-1065,-3633
4523,1293,-1032,-3633
4524,1335,-1032,-3669
4525,1335,-1059,-3732
4526,1338,-1113,-3732
4527,1338,-1113,-3762
4528,1368,-1104,-3762
4529,1404,-1104,-3732
4530,1404,-1047,-3657
4531,1368,-1017,-3657
4532,1368,-1017,-3717
4533,1383,-1026,-3717
4534,1416,-1026,-3657
4535,1416,-1095,-3714
4536,1362,-1041,-3714
4537,1362,-1041,-3708
4538,1362,-1095,-3708
4539,1368,-1095,-3708
4540,1368,-1065,-3792
4541,1413,-1077,-3792
4542,1413,-1077,-3774
4543,1353,-1083,-3774
4544,1338,-1083,-3822
4545,1338,-1044,-3762
4546,1338,-1062,-3762
4547,1338,-1062,-3819
4548,1419,-1059,-3819
4549,1344,-1059,-3747
4550,1344,-1014,-3714
4551,1317,-1065,-3714
4552,1317,-1065,-3753
4553,1362,-1014,-3753
4554,1437,-1014,-3699
4555,1437,-1023,-3642
4556,1500,-966,-3642
4557,1500,-966,-3699
4558,1368,-1023,-3699
4559,1395,-1023,-3693
4560,1395,-1044,-3693
4561,1380,-1002,-3693
4562,1380,-1002,-3648
4563,1428,-987,-3648
4564,1413,-987,-3717
4565,1413,-1014,-3717
4566,1377,-1020,-3717
4567,1377,-1020,-3822
4568,1353,-1083,-3822
4569,1371,-1083,-3768
4570,1371,-1041,-3678
4571,1284,-1050,-3678
4572,1284,-1050,-3813
4573,1422,-1095,-3813
4574,1260,-1095,-3852
4575,1260,-1098,-3744
4576,1368,-1038,-3744
4577,1368,-1038,-3648
4578,1437,-1059,-3648
4579,1362,-1059,-3744
4580,1362,-1092,-3732
4581,1428,-1038,-3732
4582,1428,-1038,-3753
4583,1353,-996,-3753
4584,1416,-996,-3714
4585,1416,-1050,-3774
4586,1386,-1056,-3774
4587,1386,-1056,-3684
4588,1302,-1050,-3684
4589,1326,-1050,-3657
4590,1326,-1023,-3633
4591,1353,-1023,-3633
4592,1353,-1032,-3687
4593,1383,-1026,-3687
4594,1266,-1026,-3714
4595,1266,-1137,-3768
4596,1296,-1137,-3768
4597,1296,-1026,-3723
4598,1383,-1026,-3723
4599,1308,-1026,-3717
4600,1308,-1053,-3684
4601,1275,-1053,-3684
4602,1275,-1011,-3723
4603,1257,-1059,-3723
4604,1416,-1059,-3693
4605,1416,-1098,-3777
4606,1332,-1098,-3777
4607,1332,-1101,-3762
4608,1344,-1050,-3762
4609,1371,-1050,-3762
4610,1371,-1023,-3723
4611,1332,-1023,-3723
4612,1332,-1053,-3759
4613,1359,-1074,-3759
4614,1380,-1074,-3798
4615,1380,-1071,-3753
4616,1386,-1071,-3753
4617,1386,-987,-3723
4618,1344,-1011,-3723
4619,1377,-1011,-3744
4620,1377,-1071,-3693
4621,1452,-1071,-3693
4622,1452,-1038,-3744
4623,1332,-1083,-3744
4624,1311,-1083,-3753
4625,1311,-1056,-3729
4626,1326,-1056,-3729
4627,1326,-1032,-3684
4628,1446,-885,-3684
4629,1215,-885,-3729
4630,1215,-1095,-3762
4631,1302,-1095,-3762
4632,1302,-1026,-3759
4633,1419,-1014,-3759
4634,1335,-1014,-3699
4635,1335,-1074,-3729
4636,1278,-1074,-3729
4637,1278,-1002,-3717
4638,1329,-1002,-3717
4639,1293,-1002,-3684
4640,1293,-1023,-3678
4641,1209,-1023,-3678
4642,1209,-1062,-3759
4643,1317,-1011,-3759
4644,1440,-1011,-3798
4645,1440,-1011,-3804
4646,1296,-1011,-3804
4647,1296,-1056,-3747
4648,1293,-987,-3747
4649,1335,-987,-3738
4650,1335,-1032,-3768
4651,1281,-1032,-3768
4652,1281,-993,-3738
4653,1359,-996,-3738
4654,1365,-996,-3702
4655,1365,-984,-3624
4656,1380,-984,-3624
4657,1380,-942,-3669
4658,1365,-990,-3669
4659,1371,-990,-3669
4660,1371,-1056,-3828
4661,1410,-1056,-3828
4662,1410,-1065,-3738
4663,1479,-1023,-3738
4664,1527,-1023,-3723
4665,1527,-975,-3723
4666,1212,-975,-3714
4667,1212,-975,-3648
4668,1428,-996,-3648
4669,1449,-996,-3747
4670,1449,-1035,-3843
4671,1377,-1035,-3843
4672,1377,-1020,-3813
4673,1413,-1005,-3813
4674,1368,-1005,-3873
4675,1368,-981,-3873
4676,1419,-981,-3699
4677,1419,-984,-3714
4678,1362,-999,-3714
4679,1413,-999,-3753
4680,1413,-990,-3753
4681,1377,-990,-3717
4682,1377,-984,-3732
4683,1293,-1044,-3732
4684,1347,-1044,-3687
4685,1347,-918,-3687
4686,1431,-918,-3687
4687,1431,-903,-3699
4688,1437,-912,-3699
4689,1317,-912,-3657
4690,1317,-972,-3657
4691,1350,-972,-3687
4692,1350,-930,-3684
4693,1314,-969,-3684
4694,1416,-969,-3753
4695,1416,-891,-3753
4696,1404,-891,-3729
4697,1404,-1026,-3864
4698,1386,-951,-3864
4699,1386,-951,-3870
4700,1401,-1053,-3870
4701,1380,-1053,-3900
4702,1380,-996,-3777
4703,1431,-1041,-3777
4704,1431,-1041,-3888
4705,1515,-1014,-3888
4706,1377,-1014,-3930
4707,1377,-1056,-3873
4708,1449,-975,-3873
4709,1449,-975,-3822
4710,1482,-1020,-3822
4711,1377,-1020,-3837
4712,1377,-984,-3813
4713,1410,-1053,-3813
4714,1410,-1053,-3858
4715,1335,-1005,-3858
4716,1362,-1005,-3807
4717,1362,-1047,-3798
4718,1329,-1032,-3798
4719,1329,-1032,-3843
4720,1290,-1008,-3843
4721,1266,-1008,-3738
4722,1266,-1002,-3813
4723,1230,-1026,-3813
4724,1230,-1026,-3708
4725,1245,-987,-3708
4726,1227,-987,-3732
4727,1227,-990,-3708
4728,1350,-945,-3708
4729,1350,-945,-3603
4730,1329,-948,-3603
4731,1326,-948,-3573
4732,1326,-984,-3618
4733,1401,-1035,-3618
4734,1401,-1035,-3762
4735,1317,-1011,-3762
4736,1335,-1011,-3657
4737,1335,-993,-3672
4738,1353,-981,-3672
4739,1353,-981,-3729
4740,1377,-981,-3729
4741,1359,-981,-3729
4742,1359,-924,-3723
4743,1383,-999,-3723
4744,1383,-999,-3819
4745,1371,-1050,-3819
4746,1449,-1050,-3822
4747,1449,-1038,-3747
4748,1326,-1041,-3747
4749,1326,-1041,-3732
4750,1350,-1017,-3732
4751,1278,-1017,-3672
4752,1278,-1050,-3714
4753,1296,-981,-3714
4754,1296,-981,-3744
4755,1260,-1020,-3744
4756,1194,-1020,-3717
4757,1194,-1023,-3804
4758,1269,-1104,-3804
4759,1269,-1104,-3903
4760,1344,-1155,-3903
4761,1329,-1155,-3879
4762,1329,-1134,-3807
4763,1398,-1032,-3807
4764,1398,-1032,-3879
4765,1293,-1116,-3879
4766,1473,-1116,-3948
4767,1473,-1110,-3888
4768,1371,-1017,-3888
4769,1371,-1017,-3798
4770,1371,-969,-3798
4771,1368,-969,-3792
4772,1368,-963,-3774
4773,1377,-1038,-3774
4774,1377,-1038,-3879
4775,1413,-981,-3879
4776,1383,-981,-3879
4777,1383,-1014,-3822
4778,1371,-1038,-3822
4779,1371,-1038,-3858
4780,1371,-993,-3858
4781,1401,-993,-3729
4782,1401,-972,-3684
4783,1293,-930,-3684
4784,1293,-930,-3627
4785,1278,-1011,-3627
4786,1095,-1011,-3642
4787,1095,-849,-3597
4788,1416,-939,-3597
4789,1416,-939,-3597
4790,1359,-849,-3597
4791,1137,-849,-3423
4792,1137,-969,-3453
4793,1365,-855,-3453
4794,1365,-855,-3402
4795,1482,-987,-3402
4796,1422,-987,-3471
4797,1422,-948,-3501
4798,1527,-1062,-3501
4799,1527,-1062,-3627
4800,1653,-990,-3627
4801,1707,-990,-3717
4802,1707,-981,-3687
4803,1848,-981,-3687
4804,1848,-1062,-3783
4805,1638,-1065,-3783
4806,1716,-1065,-3870
4807,1716,-1041,-3939
4808,1722,-1041,-3939
4809,1722,-1038,-3915
4810,1635,-1005,-3915
4811,1608,-1005,-3804
4812,1608,-948,-3852
4813,1521,-948,-3852
4814,1521,-960,-3738
4815,1536,-939,-3738
4816,1485,-939,-3738
4817,1485,-906,-3648
4818,1335,-906,-3648
4819,1335,-960,-3678
4820,1386,-945,-3678
4821,1365,-945,-3669
4822,1365,-954,-3507
4823,1389,-954,-3507
4824,1389,-990,-3609
4825,1365,-936,-3609
4826,1377,-936,-3516
4827,1377,-1020,-3618
4828,1500,-1020,-3618
4829,1500,-996,-3684
4830,1503,-1110,-3684
4831,1515,-1110,-3807
4832,1515,-1188,-3858
4833,1506,-1188,-3858
4834,1506,-1149,-3963
4835,1548,-1047,-3963
4836,1479,-1047,-3909
4837,1479,-1023,-3789
4838,1464,-1023,-3789
4839,1464,-993,-3759
4840,1386,-966,-3759
4841,1275,-966,-3699
4842,1275,-915,-3612
4843,1437,-915,-3612
4844,1437,-924,-3699
4845,1200,-945,-3699
4846,1470,-945,-3642
4847,1470,-987,-3597
4848,1482,-987,-3597
4849,1482,-1008,-3699
4850,1497,-1053,-3699
4851,1503,-1053,-3723
4852,1503,-1023,-3687
4853,1446,-1023,-3687
4854,1446,-984,-3612
4855,1653,-969,-3612
4856,1548,-969,-3723
4857,1548,-1053,-3738
4858,1515,-1053,-3738
4859,1515,-1014,-3732
4860,1551,-1002,-3732
4861,1554,-1002,-3753
4862,1554,-1050,-3798
4863,1515,-1050,-3798
4864,1515,-1005,-3768
4865,1491,-1053,-3768
4866,1416,-1053,-3738
4867,1416,-993,-3699
4868,1389,-993,-3699
4869,1389,-1002,-3633
4870,1314,-999,-3633
4871,1368,-999,-3609
4872,1368,-1020,-3693
4873,1344,-1020,-3693
4874,1344,-1095,-3702
4875,1314,-1023,-3702
4876,1377,-1023,-3723
4877,1377,-1032,-3612
4878,1263,-1032,-3612
4879,1263,-1038,-3633
4880,1404,-1038,-3633
4881,1458,-1038,-3642
4882,1458,-1056,-3714
4883,1317,-1056,-3714
4884,1317,-1074,-3669
4885,1491,-981,-3669
4886,1536,-981,-3612
4887,1536,-981,-3609
4888,1479,-981,-3609
4889,1479,-999,-3603
4890,1419,-990,-3603
4891,1437,-990,-3564
4892,1437,-1008,-3648
4893,1386,-1008,-3648
4894,1386,-1071,-3807
4895,1395,-1002,-3807
4896,1440,-1002,-3783
4897,1440,-1047,-3744
4898,1359,-1047,-3744
4899,1359,-1035,-3738
4900,1206,-1053,-3738
4901,1329,-1053,-3828
4902,1329,-1041,-3852
4903,1275,-1041,-3852
4904,1275,-1044,-3813
4905,1212,-1017,-3813
4906,1170,-1017,-3807
4907,1170,-999,-3759
4908,1113,-999,-3759
4909,1113,-1059,-3807
4910,1329,-1044,-3807
4911,1317,-1044,-3885
4912,1317,-1053,-3843
4913,1314,-1053,-3843
4914,1314,-1026,-3717
4915,1344,-990,-3717
4916,1533,-990,-3624
4917,1533,-969,-3639
4918,1452,-969,-3639
4919,1452,-1017,-3642
4920,1380,-900,-3642
4921,1362,-900,-3552
4922,1362,-966,-3624
4923,1386,-966,-3624
4924,1386,-867,-3582
4925,1437,-1023,-3582
4926,1419,-1023,-3762
4927,1419,-939,-3714
4928,1410,-939,-3714
4929,1410,-984,-3792
4930,1338,-885,-3792
4931,1422,-885,-3714
4932,1422,-969,-3738
4933,1353,-969,-3738
4934,1353,-948,-3774
4935,1395,-1002,-3774
4936,1470,-1002,-3828
4937,1470,-939,-3834
4938,1419,-939,-3834
4939,1419,-954,-3852
4940,1434,-939,-3852
4941,1449,-939,-3837
4942,1449,-993,-3759
4943,1347,-993,-3759
4944,1347,-981,-3813
4945,1383,-939,-3813
4946,1380,-939,-3783
4947,1380,-933,-3723
4948,1362,-933,-3723
4949,1362,-915,-3684
4950,1413,-879,-3684
4951,1437,-879,-3633
4952,1437,-915,-3738
4953,1296,-915,-3738
4954,1296,-981,-3789
4955,1539,-864,-3789
4956,1485,-864,-3762
4957,1485,-948,-3819
4958,1434,-948,-3819
4959,1434,-912,-3732
4960,1506,-864,-3732
4961,1572,-864,-3753
4962,1572,-867,-3768
4963,1503,-867,-3768
4964,1503,-933,-3804
4965,1557,-870,-3804
4966,1464,-870,-3729
4967,1464,-951,-3909
4968,1503,-951,-3909
4969,1503,-924,-3864
4970,1479,-951,-3864
4971,1509,-951,-3744
4972,1509,-912,-3753
4973,1437,-912,-3753
4974,1437,-924,-3789
4975,1419,-882,-3789
4976,1509,-882,-3717
4977,1509,-897,-3762
4978,1470,-897,-3762
4979,1470,-909,-3708
4980,1416,-894,-3708
4981,1488,-894,-3744
4982,1488,-891,-3804
4983,1506,-891,-3804
4984,1506,-867,-3747
4985,1500,-918,-3747
4986,1515,-918,-3714
4987,1515,-888,-3804
4988,1611,-888,-3804
4989,1611,-906,-3759
4990,1515,-900,-3759
4991,1428,-900,-3732
4992,1428,-906,-3603
4993,1536,-906,-3603
4994,1536,-867,-3699
4995,1482,-891,-3699
4996,1488,-891,-3744
4997,1488,-936,-3693
4998,1437,-936,-3693
4999,1437,-885,-3612
5000,1464,-915,-3612
5001,1362,-915,-3669
5002,1362,-870,-3687
5003,1491,-870,-3687
5004,1491,-879,-3627
5005,1440,-903,-3627
5006,1353,-903,-3672
5007,1353,-861,-3684
5008,1536,-861,-3684
5009,1536,-888,-3837
5010,1491,-909,-3837
5011,1488,-909,-3783
5012,1488,-906,-3783
5013,1422,-906,-3783
5014,1422,-948,-3858
5015,1452,-960,-3858
5016,1521,-960,-3864
5017,1521,-924,-3864
5018,1503,-924,-3888
5019,1503,-924,-3909
5020,1467,-951,-3909
5021,1401,-951,-3792
5022,1401,-936,-3792
5023,1338,-936,-3777
5024,1338,-933,-3798
5025,1416,-930,-3798
5026,1446,-930,-3783
5027,1446,-915,-3783
5028,1320,-915,-3732
5029,1320,-882,-3717
5030,1338,-882,-3717
5031,1434,-882,-3663
5032,1434,-903,-3663
5033,1419,-903,-3723
5034,1419,-915,-3753
5035,1314,-924,-3753
5036,1419,-924,-3723
5037,1419,-858,-3723
5038,1488,-858,-3702
5039,1488,-951,-3687
5040,1419,-930,-3687
5041,1437,-930,-3744
5042,1437,-921,-3744
5043,1521,-921,-3717
5044,1521,-897,-3687
5045,1452,-912,-3687
5046,1383,-912,-3714
5047,1383,-954,-3714
5048,1488,-954,-3843
5049,1488,-930,-3792
5050,1434,-984,-3792
5051,1431,-984,-3768
5052,1431,-969,-3768
5053,1464,-969,-3777
5054,1464,-903,-3744
5055,1353,-948,-3744
5056,1362,-948,-3717
5057,1362,-984,-3717
5058,1317,-984,-3789
5059,1317,-966,-3747
5060,1404,-900,-3747
5061,1350,-900,-3708
5062,1350,-1008,-3708
5063,1308,-1008,-3723
5064,1308,-939,-3768
5065,1362,-945,-3768
5066,1308,-945,-3732
5067,1308,-957,-3732
5068,1449,-957,-3723
5069,1449,-864,-3672
5070,1455,-972,-3672
5071,1383,-972,-3729
5072,1383,-939,-3729
5073,1446,-939,-3702
5074,1446,-906,-3669
5075,1401,-963,-3669
5076,1470,-963,-3684
5077,1470,-957,-3684
5078,1437,-957,-3777
5079,1437,-987,-3729
5080,1572,-930,-3729
5081,1479,-930,-3738
5082,1479,-990,-3738
5083,1311,-990,-3753
5084,1311,-936,-3729
5085,1416,-969,-3729
5086,1428,-969,-3729
5087,1428,-945,-3729
5088,1386,-945,-3738
5089,1386,-987,-3744
5090,1449,-951,-3744
5091,1503,-951,-3804
5092,1503,-969,-3804
5093,1440,-969,-3723
5094,1440,-924,-3669
5095,1473,-963,-3669
5096,1404,-963,-3699
5097,1404,-933,-3699
5098,1452,-933,-3693
5099,1452,-960,-3759
5100,1371,-915,-3759
5101,1449,-915,-3747
5102,1449,-972,-3747
5103,1473,-972,-3702
5104,1473,-933,-3777
5105,1446,-960,-3777
5106,1485,-960,-3744
5107,1485,-942,-3744
5108,1386,-942,-3717
5109,1386,-960,-3702
5110,1434,-939,-3702
5111,1479,-939,-3639
5112,1479,-888,-3639
5113,1470,-888,-3642
5114,1470,-942,-3699
5115,1446,-960,-3699
5116,1422,-960,-3738
5117,1422,-954,-3738
5118,1467,-954,-3723
5119,1467,-960,-3717
5120,1449,-948,-3717
5121,1458,-948,-3717
5122,1458,-906,-3717
5123,1473,-906,-3759
5124,1473,-936,-3744
5125,1479,-972,-3744
5126,1401,-972,-3792
5127,1401,-960,-3792
5128,1470,-960,-3732
5129,1470,-933,-3714
5130,1509,-966,-3714
5131,1455,-966,-3753
5132,1455,-945,-3753
5133,1449,-945,-3819
5134,1449,-960,-3762
5135,1380,-966,-3762
5136,1446,-966,-3777
5137,1446,-972,-3777
5138,1395,-972,-3693
5139,1395,-957,-3717
5140,1344,-984,-3717
5141,1431,-984,-3702
5142,1431,-909,-3702
5143,1536,-909,-3693
5144,1536,-948,-3792
5145,1419,-957,-3792
5146,1365,-957,-3702
5147,1365,-924,-3702
5148,1416,-924,-3672
5149,1416,-924,-3648
5150,1395,-972,-3648
5151,1344,-972,-3672
5152,1344,-1008,-3672
5153,1449,-1008,-3732
5154,1449,-963,-3759
5155,1431,-936,-3759
5156,1431,-936,-3693
5157,1419,-963,-3693
5158,1482,-963,-3669
5159,1482,-903,-3687
5160,1416,-987,-3687
5161,1416,-987,-3753
5162,1428,-939,-3753
5163,1473,-939,-3789
5164,1473,-981,-3792
5165,1458,-969,-3792
5166,1458,-969,-3642
5167,1404,-963,-3642
5168,1509,-963,-3663
5169,1509,-915,-3669
5170,1506,-948,-3669
5171,1506,-948,-3759
5172,1401,-1005,-3759
5173,1437,-1005,-3762
5174,1437,-924,-3672
5175,1410,-984,-3672
5176,1410,-984,-3732
5177,1350,-918,-3732
5178,1440,-918,-3708
5179,1440,-933,-3744
5180,1434,-933,-3744
5181,1434,-933,-3753
5182,1413,-906,-3753
5183,1431,-906,-3669
5184,1431,-930,-3708
5185,1416,-900,-3708
5186,1416,-900,-3774
5187,1464,-930,-3774
5188,1569,-930,-3804
5189,1569,-1005,-3813
5190,1533,-1017,-3813
5191,1533,-1017,-3828
5192,1437,-951,-3828
5193,1434,-951,-3798
5194,1434,-909,-3729
5195,1509,-930,-3729
5196,1509,-930,-3717
5197,1587,-966,-3717
5198,1506,-966,-3762
5199,1506,-981,-3732
5200,1449,-933,-3732
5201,1449,-933,-3738
5202,1482,-870,-3738
5203,1497,-870,-3678
5204,1497,-888,-3588
5205,1515,-933,-3588
5206,1515,-933,-3777
5207,1533,-873,-3777
5208,1458,-873,-3753
5209,1458,-888,-3672
5210,1500,-822,-3672
5211,1500,-822,-3693
5212,1584,-795,-3693
5213,1515,-795,-3633
5214,1515,-912,-3714
5215,1551,-888,-3714
5216,1551,-888,-3678
5217,1557,-888,-3678
5218,1410,-888,-3597
5219,1410,-936,-3648
5220,1431,-921,-3648
5221,1431,-921,-3702
5222,1452,-921,-3702
5223,1482,-921,-3768
5224,1482,-915,-3804
5225,1377,-1020,-3804
5226,1377,-1020,-3894
5227,1275,-999,-3894
5228,1266,-999,-3843
5229,1266,-1026,-3834
5230,1221,-1050,-3834
5231,1221,-1050,-3807
5232,1248,-1008,-3807
5233,1317,-1008,-3753
5234,1317,-1002,-3828
5235,1353,-1041,-3828
5236,1353,-1041,-3807
5237,1353,-933,-3807
5238,1431,-933,-3684
5239,1431,-915,-3678
5240,1503,-900,-3678
5241,1503,-900,-3693
5242,1557,-999,-3693
5243,1491,-999,-3657
5244,1491,-993,-3627
5245,1416,-924,-3627
5246,1416,-924,-3642
5247,1596,-867,-3642
5248,1773,-867,-3618
5249,1773,-921,-3729
5250,1833,-945,-3729
5251,1833,-945,-3804
5252,1518,-1113,-3804
5253,1278,-1113,-3843
5254,1278,-1107,-3774
5255,1506,-1017,-3774
5256,1506,-1017,-3777
5257,1209,-1056,-3777
5258,1458,-1056,-3789
5259,1458,-1077,-3792
5260,1554,-1059,-3792
5261,1554,-1059,-3813
5262,1245,-1107,-3813
5263,1188,-1107,-3783
5264,1188,-1026,-3744
5265,1281,-1068,-3744
5266,1281,-1068,-3774
5267,1215,-1095,-3774
5268,1245,-1095,-3717
5269,1245,-1032,-3657
5270,1308,-1023,-3657
5271,1308,-1023,-3624
5272,1263,-987,-3624
5273,1170,-987,-3573
5274,1170,-972,-3609
5275,1359,-1041,-3609
5276,1359,-1041,-3654
5277,1365,-1095,-3654
5278,1368,-1095,-3693
5279,1368,-1038,-3624
5280,1380,-984,-3624
5281,1380,-984,-3642
5282,1482,-1023,-3642
5283,1431,-1023,-3678
5284,1431,-1113,-3807
5285,1335,-1065,-3807
5286,1335,-1065,-3744
5287,1380,-1047,-3744
5288,1527,-1047,-3717
5289,1527,-1026,-3729
5290,1431,-1017,-3729
5291,1431,-1017,-3843
5292,1404,-1107,-3843
5293,1293,-1107,-3843
5294,1293,-1095,-3879
5295,1437,-1065,-3879
5296,1437,-1065,-3804
5297,1464,-1092,-3804
5298,1362,-1092,-3819
5299,1362,-1122,-3849
5300,1398,-1017,-3849
5301,1398,-1017,-3798
5302,1248,-1113,-3798
5303,1335,-1113,-3732
5304,1335,-1011,-3588
5305,1458,-1107,-3588
5306,1458,-1107,-3693
5307,1359,-1017,-3693
5308,1368,-1017,-3687
5309,1368,-1050,-3609
5310,1173,-993,-3609
5311,1173,-993,-3603
5312,1269,-1065,-3603
5313,1311,-1065,-3657
5314,1311,-1116,-3708
5315,1299,-1065,-3708
5316,1299,-1065,-3657
5317,1296,-1062,-3657
5318,1290,-1062,-3699
5319,1290,-1098,-3753
5320,1335,-1089,-3753
5321,1335,-1089,-3708
5322,1386,-1116,-3708
5323,1422,-1116,-3774
5324,1422,-1149,-3813
5325,1449,-1128,-3813
5326,1449,-1128,-3753
5327,1350,-1110,-3753
5328,1401,-1110,-3699
5329,1401,-1119,-3762
5330,1404,-1218,-3762
5331,1404,-1218,-3804
5332,1347,-1242,-3804
5333,1299,-1242,-3777
5334,1299,-1194,-3798
5335,1302,-1176,-3798
5336,1302,-1176,-3663
5337,1353,-1101,-3663
5338,1362,-1101,-3543
5339,1362,-1005,-3516
5340,1467,-1017,-3516
5341,1467,-1017,-3486
5342,1449,-1137,-3486
5343,1536,-1137,-3573
5344,1536,-1134,-3657
5345,1500,-1185,-3657
5346,1500,-1185,-3654
5347,1470,-1155,-3654
5348,1524,-1155,-3564
5349,1524,-1038,-3588
5350,1524,-1110,-3588
5351,1524,-1110,-3516
5352,1452,-1068,-3516
5353,1467,-1068,-3531
5354,1467,-1122,-3408
5355,1371,-1152,-3408
5356,1371,-1152,-3387
5357,1302,-1140,-3387
5358,1197,-1140,-3366
5359,1197,-1122,-3348
5360,1104,-906,-3348
5361,1104,-906,-3195
5362,1248,-846,-3195
5363,1380,-846,-3333
5364,1380,-1014,-3579
5365,1410,-1164,-3579
5366,1410,-1164,-3849
5367,1515,-1353,-3849
5368,1617,-1353,-3837
5369,1617,-1110,-3822
5370,1161,-1209,-3822
5371,1161,-1209,-4008
5372,1686,-1038,-4008
5373,1335,-1038,-4005
5374,1335,-1221,-4044
5375,1398,-1149,-4044
5376,1398,-1149,-3954
5377,1362,-1137,-3954
5378,1395,-1137,-3990
5379,1395,-1218,-3975
5380,1404,-1170,-3975
5381,1404,-1170,-3813
5382,1401,-996,-3813
5383,1458,-996,-3702
5384,1458,-1050,-3693
5385,1386,-1020,-3693
5386,1386,-1020,-3699
5387,1440,-1008,-3699
5388,1623,-1008,-3522
5389,1623,-1053,-3699
5390,1584,-1071,-3699
5391,1584,-1071,-3789
5392,1653,-1035,-3789
5393,1797,-1035,-3807
5394,1797,-1110,-3852
5395,1626,-1230,-3852
5396,1626,-1230,-3879
5397,1707,-1161,-3879
5398,1656,-1161,-3792
5399,1656,-1164,-3684
5400,1527,-1104,-3684
5401,1527,-1104,-3663
5402,1638,-1089,-3663
5403,1638,-1089,-3624
5404,1638,-1101,-3627
5405,1608,-1062,-3627
5406,1608,-1062,-3639
5407,1635,-915,-3639
5408,1812,-915,-3543
5409,1812,-768,-3336
5410,1749,-807,-3336
5411,1749,-807,-3273
5412,1863,-741,-3273
5413,2088,-741,-3228
5414,2088,-738,-3306
5415,1809,-744,-3306
5416,1809,-744,-3486
5417,1932,-762,-3486
5418,2004,-762,-3537
5419,2004,-945,-3684
5420,1914,-918,-3684
5421,1914,-918,-3759
5422,1818,-1032,-3759
5423,1647,-1032,-3843
5424,1647,-1068,-3849
5425,1635,-1053,-3849
5426,1635,-1053,-3777
5427,1533,-1059,-3777
5428,1344,-1059,-3732
5429,1344,-996,-3633
5430,1296,-891,-3633
5431,1296,-891,-3663
5432,1251,-873,-3663
5433,1209,-873,-3699
5434,1209,-894,-3672
5435,1416,-843,-3672
5436,1416,-843,-3627
5437,1515,-846,-3627
5438,1635,-846,-3552
5439,1635,-837,-3477
5440,1731,-783,-3477
5441,1731,-783,-3468
5442,1662,-762,-3468
5443,1641,-762,-3441
5444,1641,-834,-3564
5445,1569,-867,-3564
5446,1569,-867,-3609
5447,1602,-792,-3609
5448,1623,-792,-3603
5449,1623,-765,-3582
5450,1542,-714,-3582
5451,1542,-714,-3558
5452,1635,-645,-3558
5453,1785,-645,-3507
5454,1785,-657,-3657
5455,1659,-720,-3657
5456,1659,-720,-3702
5457,1851,-750,-3702
5458,1710,-750,-3672
5459,1710,-747,-3597
5460,1758,-714,-3597
5461,1758,-714,-3672
5462,1740,-681,-3672
5463,1569,-681,-3714
5464,1569,-693,-3729
5465,1515,-729,-3729
5466,1515,-729,-3738
5467,1455,-657,-3738
5468,1527,-657,-3702
5469,1527,-645,-3738
5470,1548,-600,-3738
5471,1548,-600,-3843
5472,1551,-549,-3843
5473,1689,-549,-3702
5474,1689,-624,-3747
5475,1587,-624,-3747
5476,1587,-624,-3897
5477,1767,-612,-3897
5478,1653,-612,-3918
5479,1653,-597,-3813
5480,1653,-504,-3813
5481,1653,-504,-3717
5482,1641,-492,-3717
5483,1593,-492,-3651
5484,1593,-558,-3714
5485,1797,-630,-3714
5486,1797,-630,-3834
5487,1740,-603,-3834
5488,1596,-603,-3918
5489,1596,-624,-3903
5490,1722,-654,-3903
5491,1722,-654,-3879
5492,1743,-639,-3879
5493,1611,-639,-3849
5494,1611,-693,-3954
5495,1608,-750,-3954
5496,1608,-750,-3960
5497,1527,-735,-3960
5498,1455,-735,-3948
5499,1455,-753,-3843
5500,1332,-720,-3843
5501,1332,-720,-3792
5502,1257,-624,-3792
5503,1224,-624,-3627
5504,1224,-561,-3567
5505,1260,-558,-3567
5506,1260,-558,-3561
5507,1404,-624,-3561
5508,1560,-624,-3483
5509,1560,-720,-3432
5510,1611,-651,-3432
5511,1611,-651,-3516
5512,1794,-768,-3516
5513,1920,-768,-3783
5514,1920,-807,-3888
5515,1971,-882,-3888
5516,1971,-882,-3852
5517,1989,-888,-3852
5518,1992,-888,-3783
5519,1992,-840,-3603
5520,1887,-630,-3603
5521,1887,-630,-3396
5522,1881,-666,-3396
5523,1824,-666,-3321
5524,1824,-684,-3381
5525,1797,-762,-3381
5526,1797,-762,-3567
5527,1623,-786,-3567
5528,1623,-786,-3729
5529,1623,-852,-3804
5530,1749,-1053,-3804
5531,1749,-1053,-3993
5532,1560,-1242,-3993
5533,1671,-1242,-4065
5534,1671,-1077,-4020
5535,1440,-1038,-4020
5536,1440,-1038,-3804
5537,1338,-999,-3804
5538,1269,-999,-3708
5539,1269,-930,-3441
5540,1278,-777,-3441
5541,1278,-777,-3351
5542,1440,-711,-3351
5543,1491,-711,-3372
5544,1491,-642,-3396
5545,1473,-747,-3396
5546,1473,-747,-3609
5547,1620,-846,-3609
5548,1611,-846,-3828
5549,1611,-843,-3900
5550,1662,-753,-3900
5551,1662,-753,-3843
5552,1689,-690,-3843
5553,1569,-690,-3747
5554,1569,-741,-3759
5555,1452,-696,-3759
5556,1452,-696,-3729
5557,1509,-603,-3729
5558,1590,-603,-3666
5559,1590,-681,-3693
5560,1521,-678,-3693
5561,1521,-678,-3642
5562,1584,-618,-3642
5563,1623,-618,-3738
5564,1623,-573,-3717
5565,1800,-639,-3717
5566,1800,-639,-3879
5567,1791,-762,-3879
5568,1947,-762,-3930
5569,1947,-681,-4023
5570,1848,-828,-4023
5571,1848,-828,-4179
5572,1755,-765,-4179
5573,1722,-765,-4095
5574,1722,-759,-4170
5575,1548,-705,-4170
5576,1548,-705,-4134
5577,1533,-681,-4134
5578,1617,-681,-4128
5579,1617,-669,-4089
5580,1521,-660,-4089
5581,1521,-660,-4050
5582,1458,-591,-4050
5583,1446,-591,-3888
5584,1446,-549,-3837
5585,1464,-555,-3837
5586,1548,-555,-3693
5587,1548,-477,-3693
5588,1539,-477,-3561
5589,1539,-561,-3537
5590,1542,-600,-3537
5591,1524,-600,-3627
5592,1524,-726,-3627
5593,1482,-726,-3633
5594,1482,-699,-3693
5595,1401,-687,-3693
5596,1389,-687,-3798
5597,1389,-783,-3798
5598,1359,-783,-3879
5599,1359,-858,-3918
5600,1401,-798,-3918
5601,1413,-798,-3963
5602,1413,-834,-3963
5603,1362,-834,-3945
5604,1362,-780,-3873
5605,1413,-762,-3873
5606,1338,-762,-3804
5607,1338,-729,-3804
5608,1524,-729,-3792
5609,1524,-759,-3753
5610,1506,-660,-3753
5611,1560,-660,-3672
5612,1560,-621,-3672
5613,1728,-621,-3576
5614,1728,-618,-3528
5615,1677,-609,-3528
5616,1578,-609,-3456
5617,1578,-591,-3456
5618,1707,-591,-3456
5619,1707,-606,-3381
5620,1662,-609,-3381
5621,1758,-609,-3408
5622,1758,-639,-3408
5623,1758,-639,-3477
5624,1758,-651,-3513
5625,1680,-675,-3513
5626,1611,-675,-3549
5627,1611,-657,-3549
5628,1623,-657,-3501
5629,1623,-726,-3582
5630,1686,-660,-3582
5631,1749,-660,-3549
5632,1749,-690,-3549
5633,1605,-690,-3612
5634,1605,-747,-3654
5635,1698,-669,-3654
5636,1698,-669,-3594
5637,1698,-612,-3594
5638,1644,-612,-3498
5639,1644,-582,-3498
5640,1674,-603,-3498
5641,1725,-603,-3432
5642,1725,-561,-3432
5643,1860,-561,-3531
5644,1860,-684,-3579
5645,1989,-843,-3579
5646,1887,-843,-3774
5647,1887,-864,-3774
5648,2052,-864,-3969
5649,2052,-942,-4206
5650,1917,-1074,-4206
5651,1803,-1074,-4290
5652,1803,-1047,-4290
5653,1842,-1047,-4104
5654,1842,-891,-3858
5655,1587,-810,-3858
5656,1554,-810,-3669
5657,1554,-792,-3669
5658,1470,-792,-3501
5659,1470,-813,-3462
5660,1410,-858,-3462
5661,1602,-858,-3498
5662,1602,-816,-3498
5663,1572,-816,-3513
5664,1572,-822,-3543
5665,1551,-789,-3543
5666,1635,-789,-3447
5667,1635,-861,-3447
5668,1467,-861,-3594
5669,1467,-963,-3729
5670,1626,-996,-3729
5671,1641,-996,-3744
5672,1641,-957,-3744
5673,1560,-957,-3723
5674,1560,-870,-3657
5675,1602,-909,-3657
5676,1656,-909,-3738
5677,1656,-984,-3738
5678,1554,-984,-3813
5679,1554,-1047,-3762
5680,1707,-909,-3762
5681,1587,-909,-3669
5682,1587,-894,-3669
5683,1716,-894,-3627
5684,1716,-915,-3567
5685,1698,-879,-3567
5686,1560,-879,-3627
5687,1560,-852,-3627
5688,1722,-852,-3528
5689,1722,-831,-3552
5690,1641,-903,-3552
5691,1629,-903,-3633
5692,1629,-879,-3633
5693,1764,-879,-3732
5694,1764,-858,-3624
5695,1623,-798,-3624
5696,1671,-798,-3423
5697,1671,-762,-3423
5698,1698,-762,-3447
5699,1698,-792,-3579
5700,1665,-831,-3579
5701,1623,-831,-3663
5702,1623,-903,-3663
5703,1590,-903,-3714
5704,1590,-1005,-3834
5705,1716,-1035,-3834
5706,1755,-1035,-3969
5707,1755,-1038,-3969
5708,1671,-1038,-3999
5709,1671,-984,-3915
5710,1584,-894,-3915
5711,1734,-894,-3774
5712,1734,-786,-3774
5713,1506,-786,-3657
5714,1506,-816,-3522
5715,1596,-738,-3522
5716,1797,-738,-3348
5717,1797,-714,-3348
5718,1776,-714,-3372
5719,1776,-786,-3468
5720,1896,-828,-3468
5721,1761,-828,-3537
5722,1761,-828,-3537
5723,1659,-828,-3543
5724,1659,-900,-3648
5725,1782,-915,-3648
5726,1797,-915,-3657
5727,1797,-969,-3657
5728,1638,-969,-3807
5729,1638,-954,-3762
5730,1554,-954,-3762
5731,1554,-954,-3792
5732,1572,-906,-3792
5733,1560,-906,-3744
5734,1560,-900,-3654
5735,1527,-909,-3654
5736,1602,-909,-3603
5737,1602,-861,-3603
5738,1659,-861,-3588
5739,1659,-882,-3594
5740,1704,-873,-3594
5741,1704,-873,-3618
5742,1716,-918,-3618
5743,1764,-918,-3531
5744,1764,-882,-3603
5745,1833,-963,-3603
5746,1833,-963,-3768
5747,1731,-966,-3768
5748,1803,-966,-3753
5749,1803,-933,-3792
5750,1779,-885,-3792
5751,1779,-885,-3642
5752,1731,-888,-3642
5753,1686,-888,-3612
5754,1686,-873,-3627
5755,1584,-882,-3627
5756,1584,-882,-3639
5757,1629,-882,-3639
5758,1635,-882,-3501
5759,1635,-816,-3528
5760,1566,-852,-3528
5761,1566,-852,-3483
5762,1551,-795,-3483
5763,1596,-795,-3597
5764,1596,-879,-3672
5765,1623,-924,-3672
5766,1623,-924,-3684
5767,1635,-912,-3684
5768,1596,-912,-3687
5769,1596,-870,-3663
5770,1641,-897,-3663
5771,1641,-897,-3678
5772,1680,-912,-3678
5773,1653,-912,-3687
5774,1653,-903,-3657
5775,1644,-879,-3657
5776,1644,-879,-3672
5777,1713,-897,-3672
5778,1662,-897,-3714
5779,1662,-867,-3582
5780,1596,-867,-3582
5781,1596,-867,-3687
5782,1713,-885,-3687
5783,1725,-885,-3753
5784,1725,-948,-3789
5785,1605,-969,-3789
5786,1605,-969,-3699
5787,1665,-885,-3699
5788,1692,-885,-3672
5789,1692,-915,-3732
