sequence,AccelerometerX,AccelerometerY,AccelerometerZ
0,816,894,-4020
1,768,846,-4020
2,717,846,-4053
3,717,876,-3990
4,723,876,-3990
5,723,891,-3960
6,759,888,-3960
7,750,888,-3930
8,750,897,-3954
9,666,897,-3954
10,666,921,-3903
11,666,921,-3903
12,705,921,-3870
13,705,870,-3960
14,723,870,-3960
15,723,873,-3993
16,654,783,-3993
17,573,783,-3963
18,573,786,-4005
19,471,786,-4005
20,471,777,-3975
21,591,825,-3975
22,708,825,-3990
23,708,867,-3960
24,690,867,-3960
25,690,858,-3969
26,537,834,-3969
27,435,834,-4023
28,435,747,-3993
29,417,747,-3993
30,417,804,-3960
31,402,846,-3960
32,468,846,-4008
33,468,882,-4029
34,420,882,-4029
35,420,891,-4074
36,408,888,-4074
37,378,888,-4083
38,378,882,-4053
39,378,882,-4053
40,378,885,-4134
41,486,894,-4134
42,570,894,-4179
43,570,900,-4191
44,639,900,-4191
45,639,849,-4104
46,621,912,-4104
47,561,912,-4140
48,561,879,-4053
49,576,879,-4053
50,576,756,-4044
51,678,669,-4044
52,675,669,-4098
53,675,693,-3975
54,609,693,-3975
55,609,717,-3903
56,522,873,-3903
57,453,873,-3744
58,453,1008,-3792
59,363,1008,-3792
60,363,1005,-3714
61,309,1035,-3714
62,264,1035,-3669
63,264,1014,-3642
64,189,1014,-3642
65,189,981,-3822
66,222,927,-3822
67,246,927,-3903
68,246,765,-3999
69,165,765,-3999
70,165,804,-4134
71,-30,840,-4134
72,-75,840,-4140
73,-75,831,-4140
74,105,831,-4320
75,105,858,-4374
76,285,978,-4374
77,450,978,-4356
78,450,1071,-4356
79,534,1071,-4431
80,534,1041,-4440
81,492,951,-4440
82,459,951,-4494
83,459,987,-4494
84,543,987,-4431
85,543,933,-4371
86,603,972,-4371
87,408,972,-4224
88,408,921,-4224
89,345,921,-4206
90,345,789,-4068
91,339,807,-4068
92,348,807,-3990
93,348,774,-3990
94,363,774,-3873
95,363,714,-3792
96,363,741,-3792
97,294,741,-3648
98,294,789,-3648
99,360,789,-3762
100,360,753,-3783
101,483,708,-3783
102,567,708,-3804
103,567,777,-3804
104,705,777,-3804
105,705,624,-3843
106,621,717,-3843
107,672,717,-3783
108,672,690,-3783
109,627,690,-3813
110,627,624,-3864
111,618,570,-3864
112,618,570,-3807
113,618,756,-3807
114,666,756,-3885
115,666,723,-3822
116,681,645,-3822
117,555,645,-3879
118,555,648,-3879
119,453,648,-3909
120,453,684,-3903
121,429,606,-3903
122,474,606,-3792
123,474,636,-3792
124,501,636,-3858
125,501,696,-3900
126,432,786,-3900
127,432,786,-3879
128,432,873,-3879
129,396,873,-3924
130,396,858,-3990
131,348,918,-3990
132,294,918,-4044
133,294,894,-4044
134,345,894,-4170
135,345,852,-4230
136,258,792,-4230
137,276,792,-4320
138,276,804,-4320
139,189,804,-4326
140,189,852,-4311
141,75,840,-4311
142,18,840,-4401
143,18,918,-4401
144,-135,918,-4371
145,-135,963,-4296
146,-147,1008,-4296
147,-135,1008,-4245
148,-135,1014,-4245
149,-153,1014,-4185
150,-153,1035,-4230
151,-120,1029,-4230
152,24,1029,-4320
153,24,978,-4320
154,75,978,-4281
155,75,978,-4329
156,36,891,-4329
157,27,891,-4254
158,27,801,-4254
159,18,801,-4215
160,18,792,-4089
161,171,846,-4089
162,246,846,-4014
163,246,891,-4014
164,315,891,-3873
165,315,843,-3954
166,333,852,-3954
167,348,852,-3828
168,348,810,-3828
169,303,810,-3822
170,303,849,-3933
171,366,783,-3933
172,483,783,-3918
173,483,753,-3918
174,471,753,-3918
175,471,756,-3918
176,438,690,-3918
177,456,690,-4014
178,456,672,-4014
179,507,672,-4125
180,507,699,-4170
181,510,717,-4170
182,540,717,-4140
183,540,807,-4140
184,489,807,-4053
185,489,852,-3978
186,459,741,-3978
187,459,741,-4098
188,369,744,-4098
189,216,744,-4068
190,216,687,-4065
191,243,693,-4065
192,243,693,-4119
193,177,675,-4119
194,201,675,-4074
195,201,738,-4005
196,96,732,-4005
197,96,732,-3984
198,123,654,-3984
199,42,654,-3963
200,42,618,-3930
201,-18,708,-3930
202,-18,708,-3954
203,18,666,-3954
204,123,666,-3984
205,123,645,-4008
206,234,582,-4008
207,234,582,-4125
208,333,654,-4125
209,396,654,-4158
210,396,759,-4140
211,360,732,-4140
212,360,732,-4245
213,381,642,-4245
214,453,642,-4164
215,453,639,-4269
216,507,666,-4269
217,507,666,-4194
218,579,705,-4194
219,543,705,-4155
220,543,672,-4053
221,450,603,-4053
222,450,603,-4044
223,483,480,-4044
224,687,480,-4008
225,687,360,-3870
226,750,408,-3870
227,750,408,-3822
228,717,570,-3822
229,636,570,-3669
230,636,657,-3777
231,645,618,-3777
232,645,618,-3708
233,714,600,-3708
234,804,600,-3738
235,804,699,-3783
236,750,639,-3783
237,750,639,-3849
238,480,579,-3849
239,246,579,-3963
240,246,540,-3984
241,294,552,-3984
242,294,552,-4098
243,378,606,-4098
244,381,606,-4113
245,381,699,-4140
246,264,747,-4140
247,264,747,-4260
248,111,669,-4260
249,-111,669,-4290
250,-111,618,-4290
251,-201,639,-4290
252,-201,639,-4230
253,-102,564,-4230
254,-57,564,-4158
255,-57,621,-4083
256,-153,753,-4083
257,-153,753,-4080
258,-207,813,-4080
259,-57,813,-4134
260,-57,735,-4275
261,171,672,-4275
262,171,672,-4314
263,339,630,-4314
264,399,630,-4374
265,399,666,-4194
266,330,657,-4194
267,330,657,-4239
268,312,618,-4239
269,402,618,-4194
270,402,684,-4143
271,399,684,-4143
272,399,678,-4014
273,402,693,-4014
274,282,693,-4038
275,282,624,-3975
276,312,624,-3975
277,312,633,-3918
278,309,639,-3918
279,264,639,-3945
280,264,657,-3939
281,249,657,-3939
282,249,642,-3963
283,261,552,-3963
284,162,552,-3930
285,162,564,-3984
286,93,564,-3984
287,93,546,-4050
288,102,489,-4050
289,261,489,-4125
290,261,678,-4074
291,309,678,-4074
292,309,606,-4098
293,318,651,-4098
294,381,651,-4125
295,381,678,-4149
296,450,678,-4149
297,450,603,-4098
298,438,651,-4098
299,363,651,-4158
300,363,612,-4179
301,354,612,-4179
302,354,585,-4164
303,405,594,-4164
304,540,594,-4080
305,540,678,-4095
306,480,678,-4095
307,480,666,-3969
308,480,624,-3969
309,378,624,-3924
310,378,516,-3939
311,309,516,-3939
312,309,510,-3894
313,207,459,-3894
314,141,459,-3900
315,141,489,-3969
316,282,489,-3969
317,282,588,-3888
318,300,600,-3888
319,363,600,-3915
320,363,579,-3930
321,294,579,-3930
322,294,573,-4014
323,261,549,-4014
324,225,549,-4068
325,225,624,-3960
326,213,624,-3960
327,213,639,-4053
328,312,600,-4053
329,414,600,-4119
330,414,648,-4170
331,339,648,-4170
332,339,630,-4170
333,354,648,-4170
334,405,648,-4095
335,405,630,-4170
336,396,630,-4170
337,396,630,-4155
338,459,666,-4155
339,459,666,-4158
340,459,636,-4128
341,402,636,-4128
342,402,651,-4044
343,333,669,-4044
344,318,669,-4005
345,318,630,-4020
346,300,630,-4020
347,300,630,-4098
348,276,645,-4098
349,252,645,-4095
350,252,618,-4050
351,222,618,-4050
352,222,654,-4059
353,264,654,-4059
354,231,654,-4044
355,231,630,-4059
356,240,630,-4059
357,240,663,-4125
358,192,648,-4125
359,243,648,-4110
360,243,648,-4134
361,312,648,-4134
362,312,666,-4134
363,330,666,-4134
364,312,666,-4080
365,312,672,-4128
366,318,672,-4128
367,318,621,-4095
368,318,627,-4095
369,234,627,-4080
370,234,645,-4074
371,336,645,-4074
372,336,657,-4044
373,378,612,-4044
374,438,612,-4005
375,438,636,-4065
376,378,636,-4065
377,378,588,-4098
378,363,645,-4098
379,432,645,-4044
380,432,648,-4029
381,465,648,-4029
382,465,591,-4020
383,453,612,-4020
384,423,612,-4035
385,423,636,-4038
386,405,636,-4038
387,405,624,-4020
388,420,549,-4020
389,474,549,-4095
390,474,603,-4029
391,456,603,-4029
392,456,642,-4014
393,372,630,-4014
394,378,630,-4074
395,378,594,-4023
396,372,594,-4023
397,372,618,-4023
398,396,582,-4023
399,417,582,-4089
400,417,633,-4089
401,372,633,-4089
402,372,594,-4035
403,330,585,-4035
404,351,585,-4059
405,351,651,-4053
406,414,651,-4053
407,414,624,-4053
408,435,588,-4053
409,453,588,-4074
410,453,618,-4044
411,312,618,-4044
412,312,642,-4083
413,330,606,-4083
414,345,606,-4098
415,345,627,-4089
416,381,627,-4089
417,381,678,-4089
418,351,621,-4089
419,366,621,-4140
420,366,612,-4050
421,345,612,-4050
422,345,633,-4065
423,381,615,-4065
424,390,615,-4023
425,390,651,-4059
426,414,651,-4059
427,414,636,-4104
428,417,669,-4104
429,378,669,-4035
430,378,639,-4065
431,330,639,-4065
432,330,627,-4083
433,363,573,-4083
434,348,573,-4095
435,348,633,-4089
436,405,633,-4089
437,405,666,-3960
438,417,636,-3960
439,381,636,-4080
440,381,588,-4029
441,399,588,-4029
442,399,633,-4059
443,447,621,-4059
444,396,621,-4065
445,396,633,-4035
446,351,633,-4035
447,351,618,-4065
448,381,588,-4065
449,399,588,-4059
450,399,642,-4104
451,390,642,-4104
452,390,621,-3999
453,405,603,-3999
454,438,603,-4074
455,438,633,-4014
456,438,633,-4014
457,438,633,-4068
458,438,597,-4068
459,435,597,-4089
460,435,618,-4068
461,420,618,-4068
462,420,612,-4068
463,414,612,-4068
464,414,612,-4035
465,414,672,-4068
466,402,672,-4068
467,402,612,-4053
468,369,627,-4053
469,438,627,-4083
470,438,627,-4029
471,441,627,-4029
472,441,621,-4044
473,432,627,-4044
474,417,627,-4110
475,417,615,-4125
476,417,615,-4125
477,417,639,-4083
478,417,657,-4083
479,414,657,-4074
480,414,588,-4134
481,414,588,-4134
482,414,654,-4050
483,420,621,-4050
484,363,621,-4053
485,363,606,-4065
486,351,606,-4065
487,351,603,-4014
488,351,630,-4014
489,381,630,-3984
490,381,654,-4029
491,339,654,-4029
492,339,627,-4035
493,336,630,-4035
494,387,630,-4059
495,387,624,-4050
496,399,624,-4050
497,399,594,-4035
498,333,600,-4035
499,351,600,-4074
500,351,636,-4083
501,354,636,-4083
502,354,645,-4113
503,396,687,-4113
504,354,687,-4065
505,354,669,-4020
506,300,669,-4020
507,300,642,-3984
508,285,636,-3984
509,249,636,-4074
510,249,621,-4020
511,231,621,-4020
512,231,621,-4080
513,261,612,-4080
514,414,612,-4083
515,414,669,-4128
516,576,669,-4128
517,576,693,-4095
518,492,624,-4095
519,351,624,-4113
520,351,600,-4059
521,240,600,-4059
522,240,630,-3999
523,339,585,-3999
524,417,585,-4095
525,417,591,-4065
526,498,591,-4065
527,498,585,-4065
528,435,600,-4065
529,372,600,-4044
530,372,573,-4059
531,333,573,-4059
532,333,582,-4014
533,360,606,-4014
534,438,606,-4053
535,438,591,-4050
536,360,591,-4050
537,360,585,-4050
538,264,588,-4050
539,228,588,-3999
540,228,576,-3999
541,207,576,-3999
542,207,612,-3999
543,228,651,-3999
544,222,651,-3960
545,222,645,-3993
546,195,645,-3993
547,195,645,-4035
548,201,639,-4035
549,174,639,-4113
550,174,672,-4068
551,213,672,-4068
552,213,678,-4110
553,222,645,-4110
554,225,645,-4140
555,225,708,-4164
556,240,708,-4164
557,240,693,-4194
558,240,681,-4194
559,216,681,-4170
560,216,663,-4194
561,249,663,-4194
562,249,708,-4140
563,291,636,-4140
564,264,636,-4173
565,264,633,-4128
566,216,633,-4128
567,216,720,-4185
568,297,726,-4185
569,240,726,-4050
570,240,549,-4059
571,225,549,-4059
572,225,624,-4155
573,354,747,-4155
574,351,747,-4035
575,351,687,-4020
576,228,687,-4020
577,228,615,-4065
578,198,624,-4065
579,261,624,-3990
580,261,639,-4005
581,318,639,-4005
582,318,639,-4005
583,312,612,-4005
584,291,612,-4035
585,291,657,-4023
586,336,657,-4023
587,336,594,-4005
588,345,633,-4005
589,330,633,-4059
590,330,579,-4104
591,330,579,-4104
592,330,615,-4149
593,267,618,-4149
594,360,618,-4104
595,360,582,-4083
596,381,636,-4083
597,381,636,-4158
598,363,627,-4158
599,381,627,-4050
600,381,618,-4080
601,261,597,-4080
602,261,597,-4119
603,312,615,-4119
604,327,615,-4038
605,327,636,-4065
606,327,591,-4065
607,327,591,-4068
608,423,585,-4068
609,369,585,-4059
610,369,621,-4098
611,360,675,-4098
612,360,675,-4038
613,372,639,-4038
614,384,639,-4068
615,384,546,-4080
616,240,585,-4080
617,240,585,-4014
618,240,579,-4014
619,276,579,-4035
620,276,606,-4074
621,378,684,-4074
622,378,684,-3984
623,363,678,-3984
624,360,678,-4005
625,360,624,-4134
626,291,597,-4134
627,291,597,-4104
628,246,642,-4104
629,234,642,-4104
630,234,678,-4140
631,228,645,-4140
632,228,645,-4110
633,291,690,-4110
634,318,690,-4134
635,318,663,-4113
636,300,657,-4113
637,300,657,-4119
638,315,678,-4119
639,360,678,-4119
640,360,621,-4104
641,354,663,-4104
642,354,663,-4089
643,303,678,-4089
644,330,678,-4128
645,330,648,-4104
646,315,567,-4104
647,315,567,-4068
648,279,639,-4068
649,318,639,-4020
650,318,603,-4068
651,312,615,-4068
652,312,615,-4053
653,321,636,-4053
654,399,636,-4005
655,399,591,-4059
656,399,552,-4059
657,399,552,-4125
658,465,504,-4125
659,423,504,-4134
660,423,543,-4029
661,351,312,-4029
662,351,312,-4209
663,243,513,-4209
664,279,513,-4149
665,279,567,-4128
666,354,549,-4128
667,354,549,-4065
668,435,567,-4065
669,348,567,-4080
670,348,600,-4113
671,354,378,-4113
672,354,378,-4125
673,285,234,-4125
674,120,234,-4173
675,120,447,-4164
676,246,372,-4164
677,246,372,-4110
678,294,552,-4110
679,408,552,-4050
680,408,579,-4044
681,210,450,-4044
682,210,450,-4044
683,6,255,-4044
684,213,255,-4158
685,213,-192,-4179
686,111,147,-4179
687,111,147,-4239
688,501,510,-4239
689,321,510,-4074
690,321,270,-4074
691,120,246,-4074
692,120,246,-4098
693,93,183,-4098
694,69,183,-4179
695,69,87,-4209
696,-186,-207,-4209
697,-186,-207,-4203
698,15,147,-4203
699,-213,147,-4110
700,-213,-15,-4179
701,-57,162,-4179
702,-57,162,-4080
703,27,237,-4080
704,36,237,-3864
705,36,-15,-4002
706,-51,-108,-4002
707,-51,-108,-4035
708,-186,-123,-4035
709,-174,-123,-4029
710,-174,120,-4035
711,-144,-51,-4035
712,-144,-51,-3972
713,3,-18,-3972
714,63,-18,-4002
715,63,-198,-4245
716,-105,-294,-4245
717,-105,-294,-4239
718,-312,-222,-4239
719,-345,-222,-4215
720,-345,-129,-4200
721,-135,18,-4200
722,-135,18,-4125
723,-93,-219,-4125
724,-87,-219,-4248
725,-87,-216,-4233
726,-231,-189,-4233
727,-231,-189,-4194
728,-264,-252,-4194
729,-294,-252,-4215
730,-294,-312,-4173
731,-180,-225,-4173
732,-180,-225,-3948
733,-183,-351,-3948
734,-171,-351,-4053
735,-171,-396,-4038
736,-594,-486,-4038
737,-594,-486,-3963
738,-189,-303,-3963
739,-42,-303,-4020
740,-42,-423,-4068
741,-267,-168,-4068
742,-267,-168,-3969
743,-306,-456,-3969
744,-318,-456,-4020
745,-318,-597,-4194
746,72,-108,-4194
747,72,-108,-3972
748,60,-282,-3972
749,-174,-282,-3927
750,-174,-738,-4068
751,-375,-510,-4068
752,-375,-510,-4110
753,-318,-543,-4110
754,-432,-543,-4185
755,-432,-354,-4065
756,45,-255,-4065
757,45,-255,-4068
758,60,-627,-4068
759,-132,-627,-3984
760,-132,-441,-4188
761,-381,-795,-4188
762,-381,-795,-4251
763,-267,-537,-4251
764,-291,-537,-4119
765,-291,-153,-4002
766,303,-177,-4002
767,303,-177,-4035
768,303,-216,-4035
769,27,-216,-4065
770,27,-381,-4089
771,-117,-495,-4089
772,-117,-495,-4008
773,-9,-534,-4008
774,114,-534,-4023
775,114,-225,-3762
776,318,-225,-3762
777,318,-225,-3828
778,276,-402,-3828
779,90,-402,-3807
780,90,-588,-4170
781,138,-678,-4170
782,138,-678,-4206
783,18,-354,-4206
784,345,-354,-4194
785,345,-78,-4014
786,366,-255,-4014
787,366,-255,-3954
788,519,-15,-3954
789,258,-15,-3984
790,258,-324,-4218
791,240,-525,-4218
792,240,-525,-4299
793,165,-585,-4299
794,372,-585,-4320
795,372,-468,-4233
796,231,-465,-4233
797,231,-465,-4278
798,-165,-657,-4278
799,225,-657,-4005
800,225,-279,-4050
801,345,-342,-4050
802,345,-342,-4113
803,216,-375,-4113
804,6,-375,-4149
805,6,-423,-3993
806,-18,-399,-3993
807,-18,-399,-3969
808,9,-501,-3969
809,-120,-501,-3882
810,-120,-567,-3993
811,-42,-306,-3993
812,42,-306,-4059
813,42,-417,-4059
814,-60,-417,-4038
815,-60,-651,-3975
816,-147,-633,-3975
817,-186,-633,-3939
818,-186,-552,-3939
819,-207,-552,-3963
820,-207,-693,-4065
821,-252,-549,-4065
822,-165,-549,-3984
823,-165,-210,-3984
824,-36,-210,-3693
825,-36,-120,-3573
826,24,-69,-3573
827,-201,-69,-3486
828,-201,-777,-3486
829,-99,-777,-4479
830,-99,-1833,-4707
831,-1527,-540,-4707
832,-771,-540,-4521
833,-771,-81,-4521
834,171,-81,-4059
835,171,-282,-4038
836,-6,-291,-4038
837,-186,-291,-4020
838,-186,-285,-4020
839,-195,-285,-4158
840,-195,-351,-4218
841,-402,-402,-4218
842,-549,-402,-4230
843,-549,-648,-4230
844,-444,-648,-4611
845,-444,-327,-4113
846,-546,-492,-4113
847,-543,-492,-4149
848,-543,-528,-4149
849,-411,-528,-4044
850,-411,-525,-3987
851,-300,-225,-3987
852,-387,-225,-3984
853,-387,-393,-3984
854,-405,-393,-3927
855,-405,-513,-4029
856,-540,-573,-4029
857,-444,-573,-4008
858,-444,-477,-4008
859,-288,-477,-4023
860,-288,-345,-3948
861,-204,-282,-3948
862,-411,-282,-3897
863,-411,-414,-3897
864,-474,-414,-4074
865,-474,-567,-4128
866,-363,-465,-4128
867,-321,-465,-4113
868,-321,-492,-4113
869,-351,-492,-4215
870,-351,-459,-4200
871,-237,-258,-4200
872,-288,-258,-4074
873,-288,-372,-4074
874,-282,-372,-4074
875,-282,-381,-4080
876,-303,-348,-4080
877,-303,-348,-4050
878,-303,-285,-4050
879,-282,-285,-3984
880,-282,-258,-3693
881,-231,-99,-3693
882,-267,-99,-3492
883,-267,-42,-3492
884,-138,-42,-3618
885,-138,-51,-3837
886,-117,-120,-3837
887,-114,-120,-4074
888,-114,-93,-4275
889,-135,-93,-4275
890,-135,39,-4185
891,-60,216,-4185
892,-144,216,-4134
893,-144,366,-4134
894,-96,366,-4164
895,-96,510,-4128
896,57,543,-4128
897,24,543,-4254
898,24,420,-4254
899,234,420,-4296
900,234,285,-4380
901,345,345,-4380
902,300,345,-4269
903,300,426,-4269
904,207,426,-4215
905,207,483,-4224
906,96,522,-4224
907,105,522,-4245
908,105,612,-4245
909,138,612,-4254
910,138,708,-4191
911,132,765,-4191
912,87,765,-4158
913,87,735,-4158
914,84,735,-4200
915,84,729,-4140
916,84,720,-4140
917,15,720,-4095
918,15,696,-4095
919,-66,696,-4089
920,-66,717,-4020
921,-99,753,-4020
922,-51,753,-3990
923,-51,768,-3990
924,24,768,-4005
925,24,744,-4065
926,36,708,-4065
927,78,708,-3999
928,78,744,-3999
929,75,744,-4029
930,75,741,-4095
931,144,756,-4095
932,162,756,-4029
933,162,759,-4029
934,93,759,-4029
935,93,783,-4050
936,108,741,-4050
937,75,741,-4185
938,75,726,-4185
939,96,726,-4119
940,96,756,-4140
941,108,783,-4140
942,210,783,-4083
943,210,786,-4083
944,123,786,-4068
945,123,774,-3984
946,72,720,-3984
947,84,720,-4023
948,84,756,-4023
949,87,756,-4065
950,87,768,-4044
951,114,777,-4044
952,159,777,-4035
953,159,780,-4035
954,144,780,-3963
955,144,756,-4053
956,129,786,-4053
957,132,786,-4059
958,132,771,-4059
959,138,771,-4080
960,138,744,-4068
961,105,789,-4068
962,123,789,-4059
963,123,786,-4059
964,177,786,-4098
965,177,774,-4104
966,129,795,-4104
967,129,795,-4083
968,129,759,-4068
969,111,759,-4068
970,111,714,-4083
971,123,768,-4083
972,171,768,-4023
973,171,816,-4014
974,207,816,-4014
975,207,768,-4053
976,138,750,-4053
977,54,750,-3993
978,54,744,-4035
979,84,744,-4035
980,84,774,-4029
981,72,786,-4029
982,129,786,-4008
983,129,810,-4029
984,159,810,-4029
985,159,810,-3954
986,120,786,-3954
987,156,786,-4068
988,156,774,-4023
989,201,774,-4023
990,201,777,-4119
991,285,804,-4119
992,252,804,-4164
993,252,870,-4095
994,225,870,-4095
995,225,810,-4113
996,174,774,-4113
997,156,774,-4134
998,156,738,-4119
999,216,738,-4119
1000,216,768,-4029
1001,231,816,-4029
1002,195,816,-4038
1003,195,810,-4023
1004,114,810,-4023
1005,114,783,-4023
1006,63,777,-4023
1007,123,777,-3963
1008,123,795,-3969
1009,138,795,-3969
1010,138,792,-3960
1011,123,771,-3960
1012,141,771,-4044
1013,141,774,-4089
1014,159,774,-4089
1015,159,792,-4053
1016,123,780,-4053
1017,42,780,-4083
1018,42,747,-4185
1019,93,747,-4185
1020,93,759,-4149
1021,159,786,-4149
1022,195,786,-4065
1023,195,816,-4065
1024,129,816,-4065
1025,129,819,-4080
1026,84,741,-4080
1027,177,741,-4074
1028,177,717,-4065
1029,222,717,-4065
1030,222,738,-4053
1031,189,741,-4053
1032,222,741,-4059
1033,222,771,-3993
1034,180,771,-3993
1035,180,798,-4035
1036,114,765,-4035
1037,84,765,-4020
1038,84,696,-4020
1039,147,696,-4065
1040,147,720,-4038
1041,180,753,-4038
1042,141,753,-4038
1043,141,771,-4038
1044,54,771,-4008
1045,54,753,-3999
1046,21,714,-3999
1047,54,714,-4023
1048,54,729,-4023
1049,144,729,-4053
1050,144,747,-4005
1051,126,759,-4005
1052,126,759,-4059
1053,126,774,-4059
1054,60,774,-4053
1055,60,756,-4089
1056,102,750,-4089
1057,114,750,-4083
1058,114,774,-4080
1059,162,774,-4080
1060,162,783,-4074
1061,108,774,-4074
1062,138,774,-4068
1063,138,732,-4068
1064,84,732,-4083
1065,84,747,-4080
1066,90,777,-4080
1067,93,777,-4053
1068,93,792,-4053
1069,90,792,-4059
1070,90,747,-4023
1071,36,753,-4023
1072,27,753,-3984
1073,27,735,-3984
1074,111,735,-4068
1075,111,756,-4098
1076,78,741,-4098
1077,69,741,-4065
1078,69,759,-4065
1079,18,759,-4059
1080,18,747,-4068
1081,-24,771,-4068
1082,-30,771,-4095
1083,-30,750,-4095
1084,57,750,-4074
1085,57,738,-4023
1086,84,819,-4023
1087,33,819,-3990
1088,33,834,-3990
1089,3,834,-4044
1090,3,720,-4110
1091,3,726,-4110
1092,-48,726,-4065
1093,-48,729,-4065
1094,-18,729,-4104
1095,-18,804,-4164
1096,60,726,-4164
1097,108,726,-4110
1098,108,819,-4110
1099,-27,819,-4080
1100,-27,771,-4140
1101,-75,753,-4140
1102,-57,753,-4185
1103,-57,732,-4185
1104,-24,732,-4119
1105,-24,735,-4113
1106,33,771,-4113
1107,33,771,-4005
1108,33,789,-4005
1109,36,789,-3960
1110,36,750,-3963
1111,-12,726,-3963
1112,6,726,-3933
1113,6,636,-3933
1114,45,636,-3918
1115,45,693,-3969
1116,72,771,-3969
1117,60,771,-3939
1118,60,732,-3939
1119,60,732,-3963
1120,60,753,-3978
1121,63,735,-3978
1122,57,735,-4068
1123,57,705,-4068
1124,-15,705,-4020
1125,-15,798,-4059
1126,36,810,-4059
1127,54,810,-4059
1128,54,831,-4059
1129,72,831,-4098
1130,72,759,-4128
1131,21,705,-4128
1132,-135,705,-4236
1133,-135,744,-4236
1134,-216,744,-4164
1135,-216,774,-4140
1136,-120,783,-4140
1137,-78,783,-4158
1138,-78,804,-4158
1139,-156,804,-4083
1140,-156,675,-4164
1141,-273,645,-4164
1142,-387,645,-4119
1143,-387,639,-4119
1144,-378,639,-4035
1145,-378,675,-3948
1146,-375,672,-3948
1147,-342,672,-3954
1148,-342,696,-3954
1149,-138,696,-4068
1150,-138,765,-3990
1151,54,810,-3990
1152,93,810,-4080
1153,93,747,-4080
1154,57,747,-4170
1155,57,639,-4215
1156,21,582,-4215
1157,33,582,-4245
1158,33,675,-4245
1159,24,675,-4155
1160,24,723,-4053
1161,-6,747,-4053
1162,18,747,-3969
1163,18,717,-3969
1164,-18,717,-3990
1165,-18,690,-3990
1166,-81,681,-3990
1167,-81,681,-3900
1168,-75,690,-3900
1169,-81,690,-3873
1170,-81,684,-3879
1171,-42,699,-3879
1172,57,699,-3879
1173,57,699,-3879
1174,63,699,-3930
1175,63,747,-3885
1176,9,780,-3885
1177,9,780,-3975
1178,-48,744,-3975
1179,24,744,-4095
1180,24,705,-4155
1181,108,798,-4155
1182,108,798,-4221
1183,96,837,-4221
1184,-18,837,-4284
1185,-18,768,-4365
1186,-63,615,-4365
1187,-63,615,-4371
1188,-147,774,-4371
1189,-240,774,-4356
1190,-240,939,-4299
1191,-381,852,-4299
1192,-381,852,-4455
1193,-390,681,-4455
1194,-357,681,-4425
1195,-357,873,-4320
1196,-243,1086,-4320
1197,-243,1086,-4329
1198,-207,885,-4329
1199,-252,885,-4419
1200,-252,741,-4464
1201,-456,720,-4464
1202,-456,720,-4344
1203,-378,810,-4344
1204,-243,810,-4326
1205,-243,819,-4236
1206,-180,684,-4236
1207,-180,684,-4206
1208,-156,717,-4206
1209,-276,717,-4224
1210,-276,618,-4209
1211,-447,669,-4209
1212,-447,669,-4119
1213,-465,621,-4119
1214,-429,621,-4113
1215,-429,570,-4170
1216,-414,627,-4170
1217,-369,627,-4080
1218,-369,600,-4080
1219,-396,600,-3975
1220,-396,537,-3993
1221,-312,438,-3993
1222,-216,438,-3933
1223,-216,435,-3933
1224,-207,435,-3888
1225,-207,405,-3834
1226,-276,378,-3834
1227,-432,378,-3717
1228,-432,390,-3717
1229,-510,390,-3714
1230,-510,465,-3813
1231,-291,285,-3813
1232,-165,285,-3723
1233,-165,309,-3723
1234,-114,309,-3747
1235,-114,366,-3873
1236,-36,333,-3873
1237,-132,333,-4068
1238,-132,294,-4068
1239,-144,294,-4194
1240,-144,279,-4434
1241,-156,258,-4434
1242,9,258,-4479
1243,9,162,-4479
1244,-45,162,-4500
1245,-45,408,-4431
1246,-102,216,-4431
1247,-144,216,-4401
1248,-144,231,-4329
1249,-126,231,-4329
1250,-126,417,-4191
1251,-132,387,-4191
1252,-138,387,-4191
1253,-138,156,-4311
1254,-249,156,-4311
1255,-249,219,-4356
1256,-372,219,-4356
1257,-357,219,-4344
1258,-357,165,-4275
1259,-351,165,-4275
1260,-351,300,-4305
1261,-522,444,-4305
1262,-378,444,-4314
1263,-378,336,-4359
1264,-234,336,-4359
1265,-234,-120,-4089
1266,-432,-81,-4089
1267,-378,-81,-3822
1268,-378,306,-3582
1269,-162,306,-3582
1270,-162,105,-3594
1271,264,24,-3594
1272,543,24,-3717
1273,543,-318,-3882
1274,570,-318,-3882
1275,570,-291,-3903
1276,360,-261,-3903
1277,-30,-261,-3837
1278,-30,-90,-3693
1279,-414,-90,-3693
1280,-414,9,-3693
1281,-594,204,-3693
1282,-669,204,-3822
1283,-669,-18,-4029
1284,-672,-18,-4029
1285,-672,-177,-4089
1286,-660,18,-4089
1287,-492,18,-4275
1288,-492,183,-4425
1289,-300,183,-4425
1290,-300,-222,-4335
1291,-309,-12,-4335
1292,-672,-12,-4140
1293,-672,-69,-4110
1294,-912,-69,-4110
1295,-912,-102,-3939
1296,-837,-396,-3939
1297,-738,-396,-3699
1298,-738,-279,-3417
1299,-501,-279,-3417
1300,-501,-129,-3477
1301,-312,-234,-3477
1302,-213,-234,-3441
1303,-213,-267,-3411
1304,129,-267,-3411
1305,129,-330,-3360
1306,396,-294,-3360
1307,354,-294,-3315
1308,354,-174,-3378
1309,-156,-174,-3378
1310,-156,186,-3522
1311,-252,-222,-3522
1312,-135,-222,-3618
1313,-135,-150,-3912
1314,-288,-150,-3912
1315,-288,90,-4104
1316,-336,-165,-4104
1317,-180,-165,-4110
1318,-180,57,-4266
1319,-180,57,-4266
1320,-180,180,-4449
1321,-252,0,-4449
1322,-372,0,-4512
1323,-372,-303,-4419
1324,-525,-303,-4419
1325,-525,75,-4350
1326,-600,282,-4350
1327,-363,282,-4410
1328,-363,207,-4485
1329,-465,207,-4485
1330,-465,63,-4440
1331,-654,147,-4440
1332,-735,147,-4461
1333,-735,156,-4395
1334,-543,156,-4395
1335,-543,6,-4344
1336,-264,-114,-4344
1337,-78,-114,-4140
1338,-78,108,-3789
1339,-9,108,-3789
1340,-9,198,-3579
1341,9,255,-3579
1342,-135,255,-3579
1343,-135,453,-3702
1344,-402,453,-3702
1345,-402,396,-4083
1346,-534,237,-4083
1347,-747,237,-4389
1348,-747,138,-4485
1349,-699,138,-4485
1350,-699,369,-4371
1351,-660,468,-4371
1352,-663,468,-4185
1353,-663,438,-4119
1354,-612,438,-4119
1355,-612,252,-4038
1356,-450,309,-4038
1357,-534,309,-3900
1358,-534,477,-3768
1359,-816,477,-3768
1360,-816,285,-3642
1361,-1230,243,-3642
1362,-1593,243,-3426
1363,-1593,267,-3321
1364,-1752,267,-3321
1365,-1752,438,-3381
1366,-1743,441,-3381
1367,-1632,441,-3516
1368,-1632,369,-3699
1369,-1629,369,-3699
1370,-1629,540,-3948
1371,-1641,555,-3948
1372,-1608,555,-4209
1373,-1608,486,-4491
1374,-1584,486,-4491
1375,-1584,537,-4707
1376,-1479,690,-4707
1377,-1473,690,-4782
1378,-1473,795,-4785
1379,-1467,795,-4785
1380,-1467,699,-4881
1381,-1443,573,-4881
1382,-1563,573,-4806
1383,-1563,642,-4671
1384,-1317,642,-4671
1385,-1317,744,-4410
1386,-1125,573,-4410
1387,-1026,573,-4311
1388,-1026,543,-4110
1389,-1047,543,-4110
1390,-1047,567,-3993
1391,-1074,537,-3993
1392,-1116,537,-3879
1393,-1116,513,-3732
1394,-1041,501,-3732
1395,-1041,501,-3678
1396,-885,522,-3678
1397,-663,522,-3567
1398,-663,519,-3663
1399,-396,558,-3663
1400,-396,558,-3768
1401,-375,405,-3768
1402,-561,405,-3930
1403,-561,390,-4053
1404,-630,324,-4053
1405,-630,324,-4113
1406,-609,459,-4113
1407,-720,459,-4065
1408,-720,624,-3948
1409,-777,678,-3948
1410,-777,678,-3924
1411,-723,483,-3924
1412,-702,483,-4050
1413,-702,513,-4035
1414,-618,471,-4035
1415,-618,471,-4074
1416,-819,465,-4074
1417,-1059,465,-4035
1418,-1059,411,-3993
1419,-1281,459,-3993
1420,-1281,459,-3894
1421,-1218,633,-3894
1422,-942,633,-3864
1423,-942,621,-3888
1424,-702,540,-3888
1425,-702,540,-4014
1426,-747,411,-4014
1427,-924,411,-4074
1428,-924,531,-3960
1429,-1014,651,-3960
1430,-1014,651,-4044
1431,-1089,537,-4044
1432,-996,537,-4053
1433,-996,534,-4104
1434,-765,516,-4104
1435,-765,516,-4158
1436,-660,489,-4158
1437,-603,489,-4170
1438,-603,534,-4158
1439,-474,510,-4158
1440,-474,510,-4194
1441,-465,525,-4194
1442,-543,525,-4128
1443,-543,522,-4104
1444,-630,465,-4104
1445,-630,465,-3999
1446,-594,483,-3999
1447,-528,483,-4023
1448,-528,492,-3990
1449,-327,495,-3990
1450,-327,495,-3918
1451,-234,477,-3918
1452,-249,477,-3939
1453,-249,465,-3888
1454,-351,381,-3888
1455,-351,381,-3885
1456,-375,411,-3885
1457,-510,411,-3903
1458,-510,420,-3939
1459,-483,429,-3939
1460,-483,429,-3909
1461,-405,426,-3909
1462,-405,426,-3975
1463,-405,456,-3969
1464,-510,444,-3969
1465,-510,444,-3939
1466,-462,498,-3939
1467,-471,498,-4023
1468,-471,513,-4044
1469,-420,477,-4044
1470,-420,477,-4095
1471,-594,435,-4095
1472,-699,435,-4044
1473,-699,474,-4068
1474,-777,498,-4068
1475,-777,498,-4098
1476,-729,519,-4098
1477,-765,519,-4134
1478,-765,549,-4134
1479,-834,525,-4134
1480,-834,525,-4194
1481,-960,447,-4194
1482,-1014,447,-4224
1483,-1014,513,-4200
1484,-1059,540,-4200
1485,-1059,540,-4080
1486,-729,576,-4080
1487,-567,576,-4143
1488,-567,516,-4095
1489,-471,516,-4095
1490,-471,516,-4014
1491,-465,564,-4014
1492,-534,564,-3993
1493,-534,498,-3969
1494,-648,441,-3969
1495,-648,441,-3999
1496,-774,411,-3999
1497,-732,411,-3900
1498,-732,462,-3933
1499,-630,468,-3933
1500,-630,468,-3822
1501,-525,396,-3822
1502,-462,396,-3963
1503,-462,441,-3900
1504,-483,549,-3900
1505,-483,549,-3945
1506,-576,489,-3945
1507,-633,489,-3948
1508,-633,540,-3948
1509,-645,537,-3948
1510,-645,537,-4029
1511,-648,570,-4029
1512,-585,570,-4029
1513,-585,555,-4110
1514,-570,588,-4110
1515,-594,588,-4044
1516,-594,615,-4044
1517,-729,615,-4068
1518,-729,588,-4119
1519,-807,519,-4119
1520,-825,519,-4119
1521,-825,513,-4119
1522,-750,513,-4083
1523,-750,573,-4059
1524,-699,522,-4059
1525,-723,522,-4110
1526,-723,522,-4110
1527,-810,522,-4113
1528,-810,540,-4065
1529,-804,522,-4065
1530,-774,522,-4068
1531,-774,570,-4068
1532,-702,570,-4038
1533,-702,585,-4020
1534,-630,615,-4020
1535,-738,615,-3978
1536,-738,642,-3978
1537,-807,642,-3969
1538,-807,612,-3999
1539,-723,597,-3999
1540,-723,597,-4038
1541,-723,627,-4038
1542,-696,627,-4008
1543,-696,540,-4074
1544,-735,537,-4074
1545,-798,537,-4083
1546,-798,510,-4083
1547,-876,510,-4059
1548,-876,471,-4104
1549,-912,447,-4104
1550,-852,447,-4089
1551,-852,447,-4089
1552,-837,447,-4059
1553,-837,525,-3963
1554,-786,711,-3963
1555,-720,711,-3933
1556,-720,711,-4005
1557,-741,711,-4005
1558,-741,663,-4029
1559,-789,615,-4029
1560,-771,615,-4050
1561,-771,417,-4089
1562,-513,417,-4089
1563,-513,459,-4035
1564,-369,597,-4035
1565,-276,597,-3969
1566,-276,573,-3975
1567,-237,573,-3975
1568,-237,489,-4089
1569,-165,441,-4089
1570,-165,441,-4140
1571,-165,456,-4206
1572,-312,456,-4206
1573,-312,534,-4140
1574,-336,504,-4140
1575,-369,504,-4104
1576,-369,495,-4074
1577,-459,495,-4074
1578,-459,447,-3984
1579,-600,480,-3984
1580,-408,480,-3888
1581,-408,363,-3699
1582,-408,363,-3699
1583,-408,582,-3498
1584,-264,723,-3498
1585,-318,723,-3387
1586,-318,633,-3624
1587,-630,633,-3624
1588,-630,453,-3843
1589,-924,348,-3843
1590,-1134,348,-4059
1591,-1134,579,-4110
1592,-1002,579,-4110
1593,-1002,774,-4239
1594,-804,789,-4239
1595,-717,789,-4386
1596,-717,684,-4602
1597,-678,684,-4602
1598,-678,621,-4680
1599,-687,516,-4680
1600,-747,516,-4575
1601,-747,639,-4494
1602,-687,639,-4494
1603,-687,711,-4344
1604,-282,36,-4344
1605,-447,36,-4098
1606,-447,1056,-3708
1607,-276,1056,-3708
1608,-276,870,-3669
1609,-630,285,-3669
1610,-792,285,-3582
1611,-792,645,-3558
1612,-1077,645,-3558
1613,-1077,582,-3639
1614,-1590,663,-3639
1615,-1290,663,-3543
1616,-1290,807,-3654
1617,-855,807,-3654
1618,-855,810,-3960
1619,-687,996,-3960
1620,-483,996,-4275
1621,-483,543,-4542
1622,24,543,-4542
1623,24,486,-4455
1624,-408,444,-4455
1625,-540,444,-4230
1626,-540,1176,-4083
1627,-180,1176,-4083
1628,-180,513,-4230
1629,-765,486,-4230
1630,-1125,486,-4173
1631,-1125,666,-4005
1632,-1008,666,-4005
1633,-1008,798,-3813
1634,-738,1125,-3813
1635,-354,1125,-3945
1636,-354,924,-4206
1637,-111,924,-4206
1638,-111,540,-4350
1639,-264,483,-4350
1640,-522,483,-4191
1641,-522,771,-3984
1642,-477,771,-3984
1643,-477,822,-3879
1644,-351,696,-3879
1645,261,696,-3888
1646,261,789,-3774
1647,39,789,-3774
1648,39,870,-3879
1649,-36,1050,-3879
1650,-45,1050,-3963
1651,-45,468,-4059
1652,-423,468,-4059
1653,-423,276,-3978
1654,-900,690,-3978
1655,-1119,690,-3732
1656,-1119,744,-3732
1657,-1029,744,-3564
1658,-1029,960,-3408
1659,-807,1023,-3408
1660,-477,1023,-3642
1661,-477,990,-3642
1662,-336,990,-3963
1663,-336,759,-4251
1664,-534,648,-4251
1665,-405,648,-4371
1666,-405,579,-4395
1667,-285,579,-4395
1668,-285,1083,-4395
1669,-51,1281,-4395
1670,189,1281,-4491
1671,189,1089,-4626
1672,132,1089,-4626
1673,132,903,-4692
1674,60,909,-4692
1675,-156,909,-4632
1676,-156,840,-4485
1677,-174,840,-4485
1678,-174,900,-4305
1679,-216,975,-4305
1680,-372,975,-4083
1681,-372,945,-4014
1682,-507,945,-4014
1683,-507,864,-3960
1684,-570,786,-3960
1685,-540,786,-3753
1686,-540,711,-3669
1687,-552,711,-3669
1688,-552,687,-3633
1689,-615,729,-3633
1690,-633,729,-3567
1691,-633,738,-3528
1692,-708,738,-3528
1693,-708,672,-3579
1694,-684,648,-3579
1695,-681,648,-3717
1696,-681,693,-3813
1697,-717,693,-3813
1698,-717,729,-3873
1699,-648,726,-3873
1700,-630,726,-4068
1701,-630,723,-4134
1702,-612,723,-4134
1703,-612,792,-4113
1704,-543,816,-4113
1705,-480,816,-4194
1706,-480,732,-4314
1707,-459,732,-4314
1708,-459,753,-4299
1709,-480,837,-4299
1710,-432,837,-4230
1711,-432,786,-4254
1712,-390,786,-4254
1713,-390,729,-4269
1714,-351,744,-4269
1715,-357,744,-4155
1716,-357,786,-4095
1717,-387,786,-4095
1718,-387,786,-4035
1719,-432,771,-4035
1720,-558,771,-4038
1721,-558,717,-3960
1722,-510,717,-3960
1723,-510,759,-3963
1724,-462,780,-3963
1725,-450,780,-3888
1726,-450,714,-3879
1727,-651,714,-3879
1728,-651,693,-3909
1729,-687,720,-3909
1730,-639,720,-3909
1731,-639,693,-3933
1732,-558,693,-3933
1733,-558,669,-3933
1734,-591,696,-3933
1735,-753,696,-3978
1736,-753,729,-4008
1737,-720,729,-4008
1738,-720,711,-4053
1739,-678,633,-4053
1740,-633,633,-4065
1741,-633,726,-4065
1742,-600,726,-4065
1743,-600,732,-4044
1744,-636,726,-4044
1745,-630,726,-4050
1746,-630,726,-4113
1747,-633,726,-4113
1748,-633,693,-4068
1749,-681,735,-4068
1750,-594,735,-3954
1751,-594,711,-4029
1752,-627,711,-4029
1753,-627,696,-3978
1754,-570,759,-3978
1755,-546,759,-4044
1756,-546,699,-3990
1757,-549,699,-3990
1758,-549,714,-3948
1759,-501,759,-3948
1760,-492,759,-3990
1761,-492,738,-3984
1762,-480,738,-3984
1763,-480,774,-4008
1764,-528,729,-4008
1765,-528,729,-3999
1766,-528,741,-4020
1767,-483,741,-4020
1768,-483,762,-4014
1769,-531,780,-4014
1770,-534,780,-4035
1771,-534,783,-4095
1772,-522,783,-4095
1773,-522,786,-4074
1774,-528,789,-4074
1775,-612,789,-4089
1776,-612,789,-4029
1777,-594,789,-4029
1778,-594,771,-4044
1779,-612,729,-4044
1780,-510,729,-4044
1781,-510,789,-3969
1782,-456,789,-3969
1783,-456,774,-3978
1784,-546,729,-3978
1785,-603,729,-4068
1786,-603,684,-4089
1787,-651,684,-4089
1788,-651,744,-4059
1789,-648,732,-4059
1790,-579,732,-4029
1791,-579,789,-4050
1792,-600,789,-4050
1793,-600,789,-3960
1794,-639,771,-3960
1795,-723,771,-3990
1796,-723,753,-3984
1797,-699,753,-3984
1798,-699,744,-3975
1799,-591,777,-3975
1800,-567,777,-3990
1801,-567,774,-3969
1802,-597,774,-3969
1803,-597,786,-3984
1804,-567,747,-3984
1805,-558,747,-4038
1806,-558,783,-4074
1807,-603,783,-4074
1808,-603,747,-4080
1809,-570,780,-4080
1810,-477,780,-4065
1811,-477,777,-4038
1812,-525,777,-4038
1813,-525,795,-4065
1814,-525,759,-4065
1815,-474,759,-4083
1816,-474,741,-4020
1817,-513,741,-4020
1818,-513,732,-4038
1819,-498,771,-4038
1820,-534,771,-4038
1821,-534,762,-3993
1822,-495,762,-3993
1823,-495,780,-3978
1824,-561,744,-3978
1825,-579,744,-4068
1826,-579,732,-3990
1827,-552,753,-3990
1828,-552,753,-4008
1829,-522,771,-4008
1830,-567,771,-4023
1831,-567,738,-4014
1832,-561,738,-4014
1833,-561,753,-4035
1834,-528,759,-4035
1835,-513,759,-4023
1836,-513,768,-4098
1837,-552,768,-4098
1838,-552,762,-4110
1839,-543,678,-4110
1840,-552,678,-4119
1841,-552,714,-4080
1842,-474,714,-4080
1843,-474,765,-4053
1844,-465,753,-4053
1845,-522,753,-3984
1846,-522,762,-4005
1847,-570,762,-4005
1848,-570,693,-4023
1849,-525,738,-4023
1850,-483,738,-3999
1851,-483,747,-3900
1852,-528,747,-3900
1853,-528,768,-3948
1854,-522,687,-3948
1855,-510,687,-3993
1856,-510,702,-4038
1857,-444,702,-4038
1858,-444,750,-3999
1859,-441,774,-3999
1860,-510,774,-3993
1861,-510,762,-3999
1862,-480,762,-3999
1863,-480,786,-3960
1864,-501,783,-3960
1865,-546,783,-4029
1866,-546,732,-4038
1867,-570,732,-4038
1868,-570,678,-4083
1869,-627,651,-4083
1870,-579,651,-4068
1871,-579,762,-4005
1872,-489,762,-4005
1873,-489,774,-4038
1874,-429,720,-4038
1875,-510,720,-4059
1876,-510,723,-4080
1877,-516,723,-4080
1878,-516,699,-4143
1879,-471,735,-4143
1880,-387,735,-4044
1881,-387,804,-3975
1882,-387,804,-3975
1883,-387,771,-4038
1884,-351,741,-4038
1885,-351,741,-4053
1886,-351,720,-4050
1887,-354,720,-4050
1888,-354,768,-4065
1889,-345,783,-4065
1890,-339,783,-3993
1891,-339,744,-4014
1892,-378,744,-4014
1893,-378,732,-4035
1894,-420,759,-4035
1895,-426,759,-4005
1896,-426,780,-4023
1897,-432,780,-4023
1898,-432,744,-4074
1899,-507,720,-4074
1900,-543,720,-4014
1901,-543,726,-3999
1902,-480,726,-3999
1903,-480,765,-4008
1904,-510,759,-4008
1905,-585,759,-4098
1906,-585,693,-4173
1907,-579,693,-4173
1908,-579,657,-4143
1909,-552,786,-4143
1910,-570,786,-4113
1911,-570,792,-3999
1912,-531,792,-3999
1913,-531,723,-4158
1914,-528,678,-4158
1915,-528,678,-4206
1916,-528,723,-4134
1917,-489,723,-4134
1918,-489,789,-4035
1919,-387,765,-4035
1920,-291,765,-4155
1921,-291,576,-4143
1922,-165,576,-4143
1923,-165,513,-4083
1924,-225,663,-4083
1925,-360,663,-3993
1926,-360,699,-3807
1927,-426,699,-3807
1928,-426,660,-3777
1929,-492,642,-3777
1930,-462,642,-3702
1931,-462,696,-3723
1932,-369,696,-3723
1933,-369,696,-3798
1934,-396,708,-3798
1935,-549,708,-3924
1936,-549,657,-4005
1937,-561,657,-4005
1938,-561,777,-4113
1939,-414,792,-4113
1940,-255,792,-4254
1941,-255,735,-4374
1942,-270,735,-4374
1943,-270,669,-4449
1944,-318,816,-4449
1945,-372,816,-4434
1946,-372,789,-4389
1947,-264,789,-4389
1948,-264,711,-4446
1949,-294,642,-4446
1950,-375,642,-4329
1951,-375,702,-4170
1952,-483,702,-4170
1953,-483,750,-3990
1954,-543,699,-3990
1955,-600,699,-3924
1956,-600,579,-3828
1957,-564,579,-3828
1958,-564,612,-3762
1959,-546,627,-3762
1960,-546,627,-3684
1961,-546,624,-3732
1962,-645,624,-3732
1963,-645,525,-3747
1964,-654,567,-3747
1965,-576,567,-3792
1966,-576,612,-3894
1967,-462,612,-3894
1968,-462,612,-3864
1969,-405,672,-3864
1970,-426,672,-3990
1971,-426,639,-4206
1972,-327,639,-4206
1973,-327,576,-4266
1974,-219,621,-4266
1975,-345,621,-4320
1976,-345,708,-4224
1977,-474,708,-4224
1978,-474,648,-4194
1979,-513,738,-4194
1980,-441,738,-4155
1981,-441,699,-4155
1982,-369,699,-4008
1983,-369,660,-3933
1984,-294,726,-3933
1985,-357,726,-3858
1986,-357,834,-3918
1987,-60,834,-3918
1988,-60,288,-3849
1989,-264,678,-3849
1990,-267,678,-3699
1991,-267,978,-3783
1992,-579,978,-3783
1993,-579,666,-3948
1994,-801,633,-3948
1995,-705,633,-4134
1996,-705,729,-4080
1997,-513,729,-4080
1998,-513,873,-4149
1999,-225,1074,-4149
2000,474,1074,-4335
2001,474,234,-4389
2002,45,234,-4389
2003,45,570,-4098
2004,-129,1125,-4098
2005,-258,1125,-4074
2006,-258,516,-4068
2007,-651,516,-4068
2008,-651,624,-4098
2009,-777,714,-4098
2010,-687,714,-4035
2011,-687,702,-4128
2012,-285,702,-4128
2013,-285,429,-4080
2014,-273,1122,-4080
2015,-171,1122,-4005
2016,-171,927,-4236
2017,-117,927,-4236
2018,-117,543,-4380
2019,-270,549,-4380
2020,-615,549,-4395
2021,-615,783,-4311
2022,-531,783,-4311
2023,-531,738,-4164
2024,-33,567,-4164
2025,-306,567,-3858
2026,-306,1098,-3633
2027,-186,1098,-3633
2028,-186,1284,-3807
2029,60,669,-3807
2030,-48,669,-4149
2031,-48,258,-4266
2032,-375,258,-4266
2033,-375,327,-3924
2034,-708,594,-3924
2035,-759,594,-3612
2036,-759,630,-3303
2037,-687,630,-3303
2038,-687,549,-3267
2039,-639,555,-3267
2040,-288,555,-3357
2041,-288,510,-3492
2042,-333,510,-3492
2043,-333,624,-3663
2044,-432,702,-3663
2045,-357,702,-3804
2046,-357,819,-3993
2047,-87,819,-3993
2048,-87,879,-4254
2049,222,927,-4254
2050,561,927,-4536
2051,561,1047,-4695
2052,540,1047,-4695
2053,540,1191,-4806
2054,510,1047,-4806
2055,414,1047,-4953
2056,414,888,-4956
2057,174,888,-4956
2058,174,900,-4755
2059,-165,942,-4755
2060,-528,942,-4455
2061,-528,939,-4281
2062,-789,939,-4281
2063,-789,915,-4095
2064,-885,882,-4095
2065,-822,882,-3909
2066,-822,828,-3819
2067,-648,828,-3819
2068,-648,834,-3792
2069,-621,903,-3792
2070,-645,903,-3828
2071,-645,873,-3798
2072,-510,873,-3798
2073,-510,876,-3813
2074,-288,855,-3813
2075,-84,855,-3879
2076,-84,861,-3900
2077,-129,861,-3900
2078,-129,783,-3954
2079,-150,738,-3954
2080,-249,738,-4074
2081,-249,702,-4035
2082,-144,702,-4035
2083,-144,741,-4044
2084,36,786,-4044
2085,147,786,-4005
2086,147,759,-4059
2087,96,759,-4059
2088,96,738,-4074
2089,42,750,-4074
2090,6,750,-3993
2091,6,759,-4050
2092,72,759,-4050
2093,72,717,-4029
2094,18,681,-4029
2095,-138,681,-4029
2096,-138,690,-3915
2097,-183,690,-3915
2098,-183,750,-3888
2099,-153,735,-3888
2100,-66,735,-3984
2101,-66,774,-3915
2102,-15,774,-3915
2103,-15,777,-3930
2104,-180,765,-3930
2105,-285,765,-3903
2106,-285,834,-4008
2107,-237,834,-4008
2108,-237,780,-4098
2109,-195,702,-4098
2110,-327,702,-4098
2111,-327,810,-4143
2112,-378,810,-4143
2113,-378,876,-4143
2114,-327,822,-4143
2115,-336,822,-4251
2116,-336,792,-4320
2117,-360,792,-4320
2118,-360,873,-4185
2119,-363,846,-4185
2120,-357,846,-4110
2121,-357,831,-4119
2122,-339,831,-4119
2123,-339,861,-4059
2124,-342,894,-4059
2125,-357,894,-4029
2126,-357,864,-4074
2127,-402,864,-4074
2128,-402,804,-4074
2129,-360,795,-4074
2130,-357,795,-4050
2131,-357,879,-4023
2132,-357,879,-4023
2133,-357,897,-4035
2134,-351,861,-4035
2135,-291,861,-4134
2136,-291,822,-4038
2137,-357,822,-4038
2138,-357,846,-4050
2139,-357,897,-4050
2140,-243,897,-4083
2141,-243,840,-4068
2142,-225,840,-4068
2143,-225,783,-4038
2144,-300,792,-4038
2145,-219,792,-4074
2146,-219,786,-4095
2147,-168,786,-4095
2148,-168,744,-4068
2149,-75,828,-4068
2150,-6,828,-4053
2151,-6,822,-4035
2152,3,822,-4035
2153,3,840,-4098
2154,-81,849,-4098
2155,-144,849,-4095
2156,-144,825,-4104
2157,-69,825,-4104
2158,-69,810,-4158
2159,-114,762,-4158
2160,-84,762,-4128
2161,-84,801,-4080
2162,-111,801,-4080
2163,-111,795,-4050
2164,-153,744,-4050
2165,-111,744,-4053
2166,-111,672,-4023
2167,-126,672,-4023
2168,-126,687,-4014
2169,-75,750,-4014
2170,-60,750,-3963
2171,-60,732,-3945
2172,-18,732,-3945
2173,-18,759,-3930
2174,3,714,-3930
2175,18,714,-3852
2176,18,738,-3894
2177,-45,738,-3894
2178,-45,702,-3915
2179,-57,771,-3915
2180,-96,771,-3948
2181,-96,774,-3930
2182,-60,774,-3930
2183,-60,771,-4020
2184,-138,744,-4020
2185,-153,744,-4104
2186,-153,810,-4164
2187,-69,810,-4164
2188,-69,816,-4143
2189,-168,816,-4143
2190,-198,816,-4200
2191,-198,762,-4209
2192,-147,762,-4209
2193,-147,777,-4230
2194,-126,840,-4230
2195,-126,840,-4173
2196,-126,855,-4053
2197,-135,822,-4053
2198,-135,822,-3993
2199,-150,810,-3993
2200,-135,810,-4053
2201,-135,765,-3993
2202,-147,795,-3993
2203,-147,795,-3954
2204,-111,786,-3954
2205,-150,786,-3948
2206,-150,801,-3945
2207,-138,819,-3945
2208,-138,819,-4035
2209,-156,771,-4035
2210,-144,771,-3975
2211,-144,777,-3939
2212,-171,834,-3939
2213,-171,834,-4044
2214,-153,804,-4044
2215,-180,804,-4005
2216,-180,822,-4065
2217,-147,822,-4065
2218,-147,816,-4110
2219,-111,786,-4110
2220,-96,786,-4119
2221,-96,777,-4104
2222,-66,774,-4104
2223,-66,774,-4104
2224,-87,774,-4104
2225,-126,774,-4098
2226,-126,783,-4083
2227,-66,759,-4083
2228,-66,759,-4080
2229,-33,828,-4080
2230,3,828,-4080
2231,3,798,-3978
2232,-33,771,-3978
2233,-33,771,-4005
2234,-69,765,-4005
2235,-99,765,-4008
2236,-99,708,-4089
2237,-78,738,-4089
2238,-78,738,-3954
2239,-12,762,-3954
2240,-18,762,-3909
2241,-18,789,-3984
2242,-60,762,-3984
2243,-60,762,-3948
2244,-78,753,-3948
2245,-45,753,-3984
2246,-45,747,-4068
2247,36,774,-4068
2248,36,774,-4038
2249,-9,753,-4038
2250,18,753,-3969
2251,18,804,-4089
2252,-24,792,-4089
2253,-24,792,-4125
2254,-33,810,-4125
2255,-33,810,-4068
2256,-33,798,-4191
2257,-30,834,-4191
2258,-30,834,-4089
2259,-9,819,-4089
2260,-84,819,-4020
2261,-84,789,-4089
2262,-111,801,-4089
2263,-111,801,-4089
2264,-135,789,-4089
2265,-114,789,-4059
2266,-114,819,-4083
2267,-81,819,-4083
2268,-81,819,-4044
2269,-84,792,-4044
2270,-93,792,-4059
2271,-93,750,-4068
2272,-156,795,-4068
2273,-156,795,-4110
2274,-117,819,-4110
2275,-9,819,-4080
2276,-9,834,-4074
2277,18,858,-4074
2278,18,858,-4029
2279,-69,789,-4029
2280,-66,789,-4080
2281,-66,831,-4068
2282,-105,813,-4068
2283,-105,813,-4014
2284,-27,849,-4014
2285,-9,849,-4023
2286,-9,855,-3999
2287,-27,819,-3999
2288,-27,819,-4050
2289,-105,840,-4050
2290,-63,840,-4098
2291,-63,855,-4053
2292,-6,840,-4053
2293,-6,840,-4053
2294,-6,846,-4053
2295,-48,846,-3948
2296,-48,840,-4074
2297,-15,831,-4074
2298,-15,831,-4038
2299,-36,771,-4038
2300,9,771,-4059
2301,9,822,-4095
2302,6,816,-4095
2303,6,816,-4110
2304,21,801,-4110
2305,27,801,-4068
2306,27,816,-4074
2307,-30,801,-4074
2308,-30,801,-4008
2309,-36,813,-4008
2310,21,813,-4080
2311,21,783,-4050
2312,-30,801,-4050
2313,-30,801,-4023
2314,-63,801,-4023
2315,-69,801,-4098
2316,-69,792,-4020
2317,-84,798,-4020
2318,-84,798,-4038
2319,-27,804,-4038
2320,0,804,-4068
2321,0,834,-4104
2322,21,801,-4104
2323,21,801,-4095
2324,24,798,-4095
2325,-15,798,-4149
2326,-15,774,-4128
2327,15,828,-4128
2328,15,828,-4059
2329,111,804,-4059
2330,138,804,-4128
2331,138,798,-4035
2332,15,768,-4035
2333,15,768,-4020
2334,-42,765,-4020
2335,36,765,-3993
2336,36,765,-3969
2337,63,750,-3969
2338,63,750,-3984
2339,33,795,-3984
2340,54,795,-3969
2341,54,798,-3984
2342,-30,780,-3984
2343,-30,780,-4020
2344,-51,774,-4020
2345,-27,774,-4029
2346,-27,795,-4050
2347,15,795,-4050
2348,15,795,-4038
2349,-42,798,-4038
2350,-66,798,-4050
2351,-66,798,-4104
2352,-51,813,-4104
2353,-51,813,-4074
2354,-12,780,-4074
2355,3,780,-4128
2356,3,780,-4095
2357,27,810,-4095
2358,27,810,-4089
2359,-60,795,-4089
2360,-78,795,-4029
2361,-78,816,-4065
2362,6,795,-4065
2363,6,795,-4170
2364,-18,828,-4170
2365,-12,828,-4083
2366,-12,786,-4044
2367,-81,801,-4044
2368,-81,801,-4089
2369,-87,789,-4089
2370,-18,789,-4005
2371,-18,792,-4059
2372,-27,759,-4059
2373,-27,759,-4038
2374,-57,816,-4038
2375,-66,816,-4005
2376,-66,789,-4050
2377,-9,792,-4050
2378,-9,792,-4050
2379,-9,771,-4050
2380,-9,771,-4095
2381,-9,759,-4083
2382,21,792,-4083
2383,21,792,-4098
2384,-6,780,-4098
2385,54,780,-4095
2386,54,759,-4044
2387,60,795,-4044
2388,60,795,-4044
2389,-12,765,-4044
2390,-63,765,-4035
2391,-63,768,-4023
2392,-45,792,-4023
2393,-45,792,-4005
2394,-69,765,-4005
2395,-12,765,-4014
2396,-12,750,-4038
2397,-66,795,-4038
2398,-66,795,-4083
2399,-93,792,-4083
2400,-87,792,-4110
2401,-87,765,-4053
2402,-15,783,-4053
2403,-15,783,-3978
2404,-18,780,-3978
2405,-6,780,-4095
2406,-6,771,-4035
2407,-15,768,-4035
2408,-15,768,-4080
2409,57,765,-4080
2410,63,765,-4068
2411,63,780,-4068
2412,18,780,-4068
2413,18,780,-4074
2414,-15,789,-4074
2415,-36,789,-4098
2416,-36,783,-4038
2417,-27,759,-4038
2418,-27,759,-4068
2419,27,780,-4068
2420,-6,780,-4059
2421,-6,783,-4089
2422,-102,732,-4089
2423,-102,732,-4110
2424,-51,816,-4110
2425,39,816,-4029
2426,39,777,-4080
2427,51,804,-4080
2428,51,804,-4083
2429,15,783,-4083
2430,42,783,-4053
2431,42,744,-4089
2432,-27,729,-4089
2433,-27,729,-3999
2434,15,777,-3999
2435,24,777,-3993
2436,24,777,-4008
2437,69,816,-4008
2438,69,816,-4050
2439,-12,771,-4050
2440,24,771,-4038
2441,24,756,-4059
2442,24,729,-4059
2443,24,729,-4044
2444,-9,789,-4044
2445,42,789,-3990
2446,42,828,-4095
2447,54,807,-4095
2448,54,807,-4044
2449,9,804,-4044
2450,-18,804,-4044
2451,-18,795,-4059
2452,-36,801,-4059
2453,-36,801,-4044
2454,-42,753,-4044
2455,6,753,-4038
2456,6,801,-4008
2457,9,819,-4008
2458,9,819,-4023
2459,-9,780,-4023
2460,18,780,-4074
2461,18,795,-4059
2462,-15,813,-4059
2463,-15,813,-4038
2464,36,771,-4038
2465,54,771,-4095
2466,54,801,-4074
2467,51,786,-4074
2468,51,786,-4080
2469,120,792,-4080
2470,120,792,-4098
2471,120,801,-4038
2472,-51,744,-4038
2473,-51,744,-4074
2474,-171,750,-4074
2475,-18,750,-4029
2476,-18,780,-4068
2477,84,780,-4068
2478,84,780,-3978
2479,105,768,-3978
2480,-60,768,-3978
2481,-60,771,-3990
2482,-57,798,-3990
2483,-57,798,-4008
2484,-42,777,-4008
2485,27,777,-4089
2486,27,759,-4050
2487,87,786,-4050
2488,87,786,-4074
2489,72,810,-4074
2490,51,810,-4068
2491,51,786,-4050
2492,51,774,-4050
2493,51,774,-4095
2494,42,783,-4095
2495,105,783,-4068
2496,105,786,-4065
2497,72,801,-4065
2498,72,801,-4029
2499,72,816,-4029
2500,39,816,-4059
2501,39,777,-4050
2502,15,816,-4050
2503,15,816,-4044
2504,33,777,-4044
2505,9,777,-4014
2506,9,780,-4014
2507,3,792,-4014
2508,3,792,-4044
2509,-12,774,-4044
2510,27,774,-4035
2511,27,780,-4110
2512,21,783,-4110
2513,21,783,-4095
2514,45,786,-4095
2515,24,786,-4074
2516,24,780,-4023
2517,84,750,-4023
2518,84,750,-4059
2519,87,771,-4059
2520,57,771,-4035
2521,57,744,-3993
2522,27,801,-3993
2523,27,801,-3999
2524,72,819,-3999
2525,69,819,-4044
2526,69,777,-4080
2527,-36,759,-4080
2528,-36,759,-4023
2529,-42,786,-4023
2530,-60,786,-3963
2531,-60,813,-4068
2532,-27,810,-4068
2533,-27,810,-4098
2534,-63,804,-4098
2535,-102,804,-4119
2536,-102,810,-4083
2537,-12,837,-4083
2538,-12,837,-4143
2539,33,780,-4143
2540,42,780,-4083
2541,42,792,-4125
2542,45,816,-4125
2543,45,816,-4095
2544,57,804,-4095
2545,51,804,-4065
2546,51,804,-4059
2547,72,819,-4059
2548,72,819,-4023
2549,114,816,-4023
2550,75,816,-4014
2551,75,774,-4023
2552,39,786,-4023
2553,39,786,-3978
2554,39,741,-3978
2555,78,741,-3993
2556,78,825,-4089
2557,111,810,-4089
2558,111,810,-4113
2559,78,837,-4113
2560,90,837,-4074
2561,90,825,-4134
2562,129,810,-4134
2563,129,810,-4104
2564,114,807,-4104
2565,51,807,-4074
2566,51,819,-4089
2567,27,795,-4089
2568,27,795,-4068
2569,84,801,-4068
2570,63,801,-4059
2571,63,807,-4029
2572,-12,786,-4029
2573,-12,786,-4080
2574,-18,771,-4080
2575,-9,771,-3993
2576,-9,723,-4023
2577,-27,729,-4023
2578,-27,729,-4044
2579,-12,783,-4044
2580,33,783,-3999
2581,33,789,-3960
2582,42,780,-3960
2583,42,780,-3993
2584,18,783,-3993
2585,60,783,-4020
2586,60,795,-4068
2587,18,786,-4068
2588,18,786,-4044
2589,24,786,-4044
2590,-9,786,-4035
2591,-9,822,-4095
2592,15,804,-4095
2593,15,804,-4053
2594,57,828,-4053
2595,24,828,-4089
2596,24,804,-4089
2597,-9,819,-4089
2598,-9,819,-4038
2599,24,837,-4038
2600,42,837,-4044
2601,42,816,-4014
2602,96,825,-4014
2603,96,825,-4104
2604,57,816,-4104
2605,33,816,-4044
2606,33,825,-4080
2607,9,798,-4080
2608,9,798,-4038
2609,-33,828,-4038
2610,63,828,-4023
2611,63,810,-4059
2612,21,810,-4059
2613,21,810,-4050
2614,-24,834,-4050
2615,15,834,-4068
2616,15,834,-3999
2617,33,825,-3999
2618,33,825,-4074
2619,60,819,-4074
2620,39,819,-4029
2621,39,849,-4074
2622,57,837,-4074
2623,57,837,-4098
2624,24,819,-4098
2625,78,819,-4110
2626,78,816,-4044
2627,90,795,-4044
2628,90,795,-4104
2629,-9,813,-4104
2630,-9,813,-4068
2631,-9,789,-4128
2632,6,786,-4128
2633,6,786,-3999
2634,60,792,-3999
2635,39,792,-4038
2636,39,807,-3999
2637,21,780,-3999
2638,21,780,-4008
2639,45,765,-4008
2640,57,765,-3984
2641,57,789,-4023
2642,72,801,-4023
2643,72,801,-4020
2644,123,819,-4020
2645,54,819,-4020
2646,54,777,-4029
2647,84,777,-4029
2648,84,780,-4068
2649,42,780,-4068
2650,51,780,-4104
2651,51,828,-4038
2652,72,828,-4038
2653,72,795,-4059
2654,75,774,-4059
2655,27,774,-4044
2656,27,759,-3975
2657,21,759,-3975
2658,21,753,-4023
2659,36,783,-4023
2660,-18,783,-4038
2661,-18,774,-4053
2662,3,774,-4053
2663,3,774,-4050
2664,21,780,-4050
2665,3,780,-3969
2666,3,771,-4050
2667,3,771,-4050
2668,3,792,-4083
2669,3,795,-4083
2670,33,795,-4014
2671,33,759,-4080
2672,18,759,-4080
2673,18,807,-4014
2674,18,810,-4014
2675,18,810,-4095
2676,18,780,-4089
2677,93,780,-4089
2678,93,756,-4089
2679,33,786,-4089
2680,60,786,-4104
2681,60,825,-4095
2682,84,825,-4095
2683,84,792,-4059
2684,42,783,-4059
2685,51,783,-4113
2686,51,792,-4038
2687,60,792,-4038
2688,60,786,-4035
2689,45,792,-4035
2690,9,792,-4089
2691,9,780,-4029
2692,33,780,-4029
2693,33,780,-4038
2694,75,795,-4038
2695,54,795,-4038
2696,54,792,-4089
2697,-6,792,-4089
2698,-6,786,-4050
2699,0,804,-4050
2700,51,804,-3975
2701,51,771,-4050
2702,105,771,-4050
2703,105,798,-4065
2704,96,786,-4065
2705,57,786,-4083
2706,57,792,-4059
2707,72,792,-4059
2708,72,816,-4191
2709,54,780,-4191
2710,129,780,-4068
2711,129,783,-4035
2712,108,783,-4035
2713,108,807,-4023
2714,42,759,-4023
2715,6,759,-4068
2716,6,783,-4035
2717,33,783,-4035
2718,33,783,-4098
2719,33,777,-4098
2720,54,777,-4059
2721,54,783,-4005
2722,3,783,-4005
2723,3,747,-4059
2724,24,780,-4059
2725,21,780,-4005
2726,21,759,-3993
2727,45,759,-3993
2728,45,756,-4095
2729,102,807,-4095
2730,144,807,-3999
2731,144,795,-4053
2732,78,795,-4053
2733,78,816,-4044
2734,96,822,-4044
2735,96,822,-4143
2736,96,771,-4119
2737,69,771,-4119
2738,69,780,-4128
2739,90,816,-4128
2740,69,816,-4104
2741,69,807,-4020
2742,18,807,-4020
2743,18,786,-4113
2744,-18,783,-4113
2745,15,783,-4089
2746,15,756,-4089
2747,15,756,-4020
2748,15,801,-4050
2749,0,768,-4050
2750,33,768,-3975
2751,33,789,-3975
2752,51,789,-4014
2753,51,756,-4020
2754,57,753,-4020
2755,33,753,-3999
2756,33,807,-3999
2757,102,807,-4035
2758,102,792,-3999
2759,90,783,-3999
2760,54,783,-4059
2761,54,753,-4059
2762,90,753,-4080
2763,90,786,-4089
2764,75,774,-4089
2765,87,774,-4059
2766,87,780,-4059
2767,36,780,-4119
2768,36,792,-4134
2769,57,801,-4134
2770,75,801,-4098
2771,75,789,-4098
2772,78,789,-4155
2773,78,798,-4050
2774,69,771,-4050
2775,-9,771,-4005
2776,-9,795,-4005
2777,6,795,-4008
2778,6,774,-4035
2779,6,753,-4035
2780,24,753,-3999
2781,24,792,-3999
2782,-27,792,-3990
2783,-27,792,-4044
2784,-12,774,-4044
2785,42,774,-3990
2786,42,777,-3990
2787,63,777,-4068
2788,63,810,-4050
2789,93,753,-4050
2790,54,753,-3990
2791,54,801,-3990
2792,36,801,-4053
2793,36,810,-4059
2794,45,801,-4059
2795,96,801,-4110
2796,96,801,-4110
2797,78,801,-4089
2798,78,810,-4038
2799,3,786,-4038
2800,-75,786,-4059
2801,-75,786,-4059
2802,-27,786,-4089
2803,-27,804,-4044
2804,60,828,-4044
2805,60,828,-4023
2806,60,828,-4023
2807,33,828,-4038
2808,33,765,-4008
2809,-42,804,-4008
2810,57,804,-3990
2811,57,810,-3990
2812,39,810,-4035
2813,39,792,-3984
2814,72,801,-3984
2815,15,801,-4083
2816,15,807,-4083
2817,36,807,-4053
2818,36,792,-4089
2819,24,771,-4089
2820,33,771,-4068
2821,33,798,-4068
2822,60,798,-4083
2823,60,822,-4059
2824,42,795,-4059
2825,39,795,-4098
2826,39,777,-4098
2827,21,777,-4119
2828,21,804,-4068
2829,18,804,-4068
2830,15,804,-4005
2831,15,804,-4005
2832,63,804,-4089
2833,63,798,-4104
2834,63,822,-4104
2835,33,822,-4023
2836,33,822,-4023
2837,-24,822,-4014
2838,-24,801,-3978
2839,9,804,-3978
2840,42,804,-3975
2841,42,807,-3975
2842,72,807,-4044
2843,72,831,-4083
2844,51,783,-4083
2845,45,783,-4065
2846,45,804,-4065
2847,15,804,-4065
2848,15,756,-4113
2849,-9,804,-4113
2850,6,804,-4053
2851,6,783,-4023
2852,36,783,-4023
2853,36,807,-4098
2854,18,795,-4098
2855,-15,795,-4095
2856,-15,786,-4059
2857,-6,786,-4059
2858,-6,804,-4074
2859,72,798,-4074
2860,27,798,-4050
2861,27,834,-4035
2862,45,834,-4035
2863,45,804,-4059
2864,21,786,-4059
2865,-15,786,-4020
2866,-15,825,-4014
2867,-12,825,-4014
2868,-12,798,-4050
2869,42,777,-4050
2870,36,777,-4089
2871,36,828,-4029
2872,39,828,-4029
2873,39,786,-4023
2874,18,822,-4023
2875,102,822,-4068
2876,102,819,-4059
2877,57,819,-4059
2878,57,786,-4008
2879,45,828,-4008
2880,21,828,-4059
2881,21,816,-4059
2882,63,816,-4059
2883,63,825,-4059
2884,57,819,-4059
2885,21,819,-4089
2886,21,804,-4095
2887,-42,804,-4095
2888,-42,774,-4068
2889,-24,822,-4068
2890,15,822,-4035
2891,15,795,-3993
2892,15,795,-3993
2893,15,789,-4080
2894,33,807,-4080
2895,33,807,-4065
2896,33,816,-4065
2897,45,816,-4065
2898,45,798,-3984
2899,33,777,-3984
2900,15,777,-4083
2901,15,804,-4104
2902,36,804,-4104
2903,36,831,-4104
2904,-12,771,-4104
2905,27,771,-4095
2906,27,819,-4074
2907,15,819,-4074
2908,15,792,-4095
2909,24,822,-4095
2910,3,822,-4044
2911,3,780,-4104
2912,0,780,-4104
2913,0,756,-4089
2914,6,807,-4089
2915,18,807,-4065
2916,18,810,-4029
2917,45,810,-4029
2918,45,792,-4065
2919,18,768,-4065
2920,33,768,-3993
2921,33,759,-4044
2922,27,759,-4044
2923,27,795,-4035
2924,75,789,-4035
2925,54,789,-4029
2926,54,783,-3993
2927,-9,816,-3993
2928,-9,816,-3978
2929,36,768,-3978
2930,33,768,-4035
2931,33,768,-4098
2932,84,789,-4098
2933,84,789,-4083
2934,51,783,-4083
2935,-6,783,-4029
2936,-6,768,-4110
2937,-24,780,-4110
2938,-24,780,-4080
2939,9,783,-4080
2940,60,783,-4134
2941,60,786,-4113
2942,45,798,-4113
2943,45,798,-4080
2944,36,837,-4080
2945,33,837,-3993
2946,33,792,-4098
2947,21,765,-4098
2948,21,765,-4050
2949,39,783,-4050
2950,-6,783,-4020
2951,-6,792,-4008
2952,0,795,-4008
2953,0,795,-4059
2954,57,786,-4059
2955,33,786,-4023
2956,33,774,-4074
2957,33,780,-4074
2958,33,780,-4008
2959,57,798,-4008
2960,36,798,-4005
2961,36,780,-4035
2962,33,789,-4035
2963,33,789,-4068
2964,78,810,-4068
2965,24,810,-4095
2966,24,801,-4044
2967,-24,789,-4044
2968,-24,789,-3993
2969,39,765,-3993
2970,54,765,-4119
2971,54,786,-3999
2972,33,783,-3999
2973,33,783,-4059
2974,24,783,-4059
2975,-15,783,-3993
2976,-15,792,-4023
2977,-48,768,-4023
2978,-48,768,-4059
2979,33,768,-4059
2980,60,768,-4029
2981,60,789,-4044
2982,111,825,-4044
2983,111,825,-4128
2984,63,768,-4128
2985,21,768,-4128
2986,21,765,-4134
2987,42,786,-4134
2988,42,786,-4035
2989,21,759,-4035
2990,27,759,-4080
2991,27,771,-4089
2992,36,771,-4089
2993,36,771,-4068
2994,-9,804,-4068
2995,-51,804,-4035
2996,-51,768,-3963
2997,-15,780,-3963
2998,-15,780,-3984
2999,-6,792,-3984
3000,27,792,-4035
3001,27,783,-4059
3002,18,795,-4059
3003,18,795,-4005
3004,6,786,-4005
3005,9,786,-4029
3006,9,789,-4059
3007,21,789,-4059
3008,21,789,-4098
3009,90,780,-4098
3010,75,780,-4068
3011,75,828,-4068
3012,45,804,-4068
3013,45,804,-4038
3014,-33,780,-4038
3015,69,780,-4020
3016,69,777,-4065
3017,120,777,-4065
3018,120,777,-4023
3019,84,810,-4023
3020,-12,810,-4068
3021,-12,813,-4053
3022,-18,780,-4053
3023,-18,780,-4044
3024,-12,786,-4044
3025,57,786,-4098
3026,57,786,-4014
3027,45,795,-4014
3028,45,795,-4029
3029,24,810,-4029
3030,-36,810,-4044
3031,-36,792,-4053
3032,3,765,-4053
3033,3,765,-4014
3034,9,792,-4014
3035,69,792,-4050
3036,69,798,-4089
3037,6,798,-4089
3038,6,798,-4074
3039,-45,798,-4074
3040,-30,798,-4029
3041,-30,768,-4128
3042,57,783,-4128
3043,57,783,-4035
3044,93,783,-4035
3045,72,783,-4053
3046,72,798,-4068
3047,15,756,-4068
3048,15,756,-4089
3049,-9,747,-4089
3050,69,747,-4035
3051,69,765,-4044
3052,120,777,-4044
3053,120,777,-4059
3054,33,795,-4059
3055,-18,795,-4095
3056,-18,762,-4029
3057,-9,759,-4029
3058,-9,759,-4005
3059,0,819,-4005
3060,45,819,-3999
3061,45,801,-4029
3062,-9,765,-4029
3063,-9,765,-4038
3064,9,768,-4038
3065,42,768,-4014
3066,42,789,-4038
3067,15,774,-4038
3068,15,774,-4044
3069,75,768,-4044
3070,42,768,-3963
3071,42,792,-3993
3072,42,795,-3993
3073,42,795,-3993
3074,15,801,-3993
3075,9,801,-4023
3076,9,789,-4074
3077,51,792,-4074
3078,51,792,-4095
3079,15,777,-4095
3080,45,777,-4044
3081,45,804,-4008
3082,54,810,-4008
3083,3,810,-4089
3084,3,798,-4089
3085,-9,798,-4044
3086,-9,816,-4110
3087,21,825,-4110
3088,15,825,-4035
3089,15,825,-4035
3090,18,825,-4053
3091,18,840,-4059
3092,39,801,-4059
3093,15,801,-4029
3094,15,798,-4029
3095,9,798,-4068
3096,9,810,-4074
3097,57,780,-4074
3098,90,780,-4059
3099,90,828,-4059
3100,36,828,-4008
3101,36,852,-4053
3102,6,816,-4053
3103,-18,816,-4023
3104,-18,792,-4035
3105,21,792,-4035
3106,21,837,-4038
3107,0,810,-4038
3108,6,810,-4065
3109,6,816,-4005
3110,24,816,-4005
3111,24,819,-4008
3112,3,819,-4008
3113,21,819,-4080
3114,21,792,-3960
3115,24,792,-3960
3116,24,831,-4083
3117,6,831,-4083
3118,39,831,-4068
3119,39,774,-4023
3120,21,774,-4023
3121,21,828,-4059
3122,33,840,-4059
3123,24,840,-4053
3124,24,834,-4008
3125,0,834,-4008
3126,0,837,-4053
3127,18,777,-4053
3128,15,777,-4074
3129,15,828,-4008
3130,24,828,-4008
3131,24,807,-4023
3132,15,831,-4023
3133,9,831,-4083
3134,9,789,-4038
3135,39,789,-4038
3136,39,819,-4083
3137,75,798,-4083
3138,24,798,-4059
3139,24,825,-4089
3140,-33,825,-4089
3141,-33,861,-4044
3142,54,843,-4044
3143,15,843,-4104
3144,15,819,-4074
3145,-24,819,-4074
3146,-24,795,-3993
3147,-15,801,-3993
3148,60,801,-4050
3149,60,843,-4038
3150,60,843,-4038
3151,60,807,-4035
3152,18,828,-4035
3153,45,828,-3990
3154,45,834,-4089
3155,18,834,-4089
3156,18,828,-4059
3157,33,789,-4059
3158,84,789,-4074
3159,84,822,-4125
3160,96,822,-4125
3161,96,822,-4113
3162,69,846,-4113
3163,33,846,-4083
3164,33,804,-4065
3165,-45,804,-4065
3166,-45,804,-4065
3167,-24,822,-4065
3168,-33,822,-4029
3169,-33,804,-4068
3170,57,804,-4068
3171,57,786,-4074
3172,-15,780,-4074
3173,-63,780,-4020
3174,-63,786,-4053
3175,-42,786,-4053
3176,-42,816,-4005
3177,-9,831,-4005
3178,-30,831,-4083
3179,-30,699,-4089
3180,-9,699,-4089
3181,-9,726,-4089
3182,-75,762,-4089
3183,24,762,-4140
3184,24,861,-4065
3185,24,861,-4065
3186,24,765,-4113
3187,-63,837,-4113
3188,-93,837,-4005
3189,-93,693,-4119
3190,-93,693,-4119
3191,-93,594,-4209
3192,141,816,-4209
3193,42,816,-4038
3194,42,891,-4050
3195,-9,891,-4050
3196,-9,741,-4053
3197,-183,540,-4053
3198,-345,540,-4128
3199,-345,588,-4128
3200,-219,588,-4128
3201,-219,663,-4185
3202,-45,438,-4185
3203,-147,438,-4221
3204,-147,594,-4185
3205,-201,594,-4185
3206,-201,561,-4158
3207,-216,519,-4158
3208,-273,519,-4254
3209,-273,570,-4230
3210,-264,570,-4230
3211,-264,633,-4155
3212,-48,492,-4155
3213,-111,492,-4143
3214,-111,231,-4209
3215,-282,231,-4209
3216,-282,318,-4239
3217,-165,525,-4239
3218,51,525,-4044
3219,51,726,-3804
3220,-156,726,-3804
3221,-156,27,-4104
3222,-231,75,-4104
3223,-60,75,-4215
3224,-60,288,-4149
3225,-93,288,-4149
3226,-93,129,-4038
3227,96,339,-4038
3228,309,339,-3969
3229,309,504,-3918
3230,195,504,-3918
3231,195,348,-4053
3232,-132,0,-4053
3233,33,0,-4128
3234,33,120,-4020
3235,-9,120,-4020
3236,-9,102,-4005
3237,21,171,-4005
3238,-12,171,-3939
3239,-12,-114,-4134
3240,-30,-114,-4134
3241,-30,129,-3990
3242,147,438,-3990
3243,381,438,-3834
3244,381,171,-3837
3245,240,171,-3837
3246,240,231,-3954
3247,39,114,-3954
3248,54,114,-4128
3249,54,-135,-4173
3250,111,-135,-4173
3251,111,42,-4209
3252,42,492,-4209
3253,339,492,-4050
3254,339,189,-4170
3255,57,189,-4170
3256,57,-6,-4200
3257,-15,45,-4200
3258,96,45,-4335
3259,96,459,-4068
3260,243,486,-4068
3261,243,486,-3903
3262,621,726,-3903
3263,603,726,-3822
3264,603,-153,-4113
3265,-582,-381,-4113
3266,-582,-381,-4470
3267,-1065,-6,-4470
3268,-276,-6,-4203
3269,-276,102,-4008
3270,105,246,-4008
3271,105,246,-3900
3272,417,426,-3900
3273,291,426,-3978
3274,291,336,-4053
3275,57,-33,-4053
3276,57,-33,-4248
3277,-285,99,-4248
3278,36,99,-4344
3279,36,-15,-4341
3280,180,159,-4341
3281,180,159,-4275
3282,138,441,-4275
3283,114,441,-4140
3284,114,369,-4065
3285,36,180,-4065
3286,36,180,-4224
3287,-144,-51,-4224
3288,-78,-51,-4245
3289,-78,138,-4119
3290,60,84,-4119
3291,60,84,-3954
3292,114,144,-3954
3293,0,144,-3969
3294,0,330,-3813
3295,63,183,-3813
3296,63,183,-3864
3297,-9,57,-3864
3298,27,57,-3984
3299,27,87,-3954
3300,156,270,-3954
3301,156,270,-3963
3302,159,228,-3963
3303,-69,228,-3960
3304,-69,132,-3993
3305,-111,111,-3993
3306,-111,111,-4140
3307,0,183,-4140
3308,-48,183,-4239
3309,-48,183,-4185
3310,93,120,-4185
3311,93,120,-4290
3312,0,219,-4290
3313,-255,219,-4281
3314,-255,204,-4320
3315,-204,210,-4320
3316,-204,210,-4281
3317,-78,270,-4281
3318,15,270,-4299
3319,15,225,-4284
3320,-114,261,-4284
3321,-114,261,-4164
3322,-105,255,-4164
3323,-171,255,-4125
3324,-171,219,-4140
3325,-129,216,-4140
3326,-129,216,-4095
3327,-84,240,-4095
3328,-87,240,-4080
3329,-87,222,-4089
3330,-81,210,-4089
3331,-81,210,-4053
3332,-84,288,-4053
3333,60,288,-4053
3334,60,366,-4044
3335,24,228,-4044
3336,24,228,-4050
3337,-24,216,-4050
3338,6,216,-4098
3339,6,207,-4074
3340,-126,168,-4074
3341,-126,168,-4119
3342,-75,231,-4119
3343,15,231,-4110
3344,15,300,-4095
3345,-24,255,-4095
3346,-24,255,-4194
3347,-81,264,-4194
3348,-18,264,-4095
3349,-18,213,-4185
3350,-120,150,-4185
3351,-120,150,-4215
3352,-216,267,-4215
3353,-138,267,-4173
3354,-138,336,-4128
3355,-51,324,-4128
3356,-129,324,-4149
3357,-129,264,-4149
3358,-171,264,-4209
3359,-171,231,-4170
3360,-96,276,-4170
3361,-60,276,-4143
3362,-60,276,-4143
3363,-66,276,-4128
3364,-66,219,-4104
3365,-45,213,-4104
3366,-63,213,-4089
3367,-63,255,-4089
3368,-42,255,-4125
3369,-42,231,-4074
3370,0,234,-4074
3371,45,234,-4098
3372,45,258,-4098
3373,-24,258,-4113
3374,-24,234,-4095
3375,0,270,-4095
3376,33,270,-4068
3377,33,177,-4068
3378,0,177,-4110
3379,0,258,-4083
3380,-15,258,-4083
3381,-30,258,-4083
3382,-30,270,-4083
3383,-69,270,-4113
3384,-69,237,-4104
3385,42,222,-4104
3386,0,222,-4095
3387,0,261,-4095
3388,-99,261,-4149
3389,-99,225,-4140
3390,-96,219,-4140
3391,-87,219,-4134
3392,-87,177,-4134
3393,-105,177,-4119
3394,-105,219,-4119
3395,-96,213,-4119
3396,-66,213,-4164
3397,-66,225,-4164
3398,-30,225,-4104
3399,-30,222,-4173
3400,-102,249,-4173
3401,-126,249,-4065
3402,-126,177,-4065
3403,-81,177,-4095
3404,-81,285,-4083
3405,-24,210,-4083
3406,-24,210,-4149
3407,-24,222,-4149
3408,3,222,-4080
3409,3,267,-4110
3410,18,255,-4110
3411,-42,255,-4083
3412,-42,240,-4083
3413,21,240,-4173
3414,21,276,-4038
3415,18,282,-4038
3416,3,282,-4158
3417,3,267,-4158
3418,-42,267,-4119
3419,-42,219,-4155
3420,-51,240,-4155
3421,-18,240,-4143
3422,-18,240,-4143
3423,0,240,-4143
3424,0,282,-4095
3425,-6,261,-4095
3426,-105,261,-4119
3427,-105,276,-4119
3428,-30,276,-4110
3429,-30,309,-4035
3430,18,249,-4035
3431,-63,249,-4155
3432,-63,216,-4155
3433,24,216,-4053
3434,24,225,-4098
3435,-84,252,-4098
3436,-33,252,-4185
3437,-33,294,-4185
3438,6,294,-4059
3439,6,270,-4140
3440,-42,219,-4140
3441,0,219,-4149
3442,0,249,-4149
3443,-18,249,-4065
3444,-18,210,-4119
3445,-18,300,-4119
3446,-36,300,-4083
3447,-36,264,-4083
3448,-36,264,-4125
3449,-36,258,-4125
3450,-33,252,-4125
3451,-63,252,-4128
3452,-63,255,-4128
3453,-66,255,-4158
3454,-66,216,-4098
3455,3,231,-4098
3456,-84,231,-4128
3457,-84,228,-4128
3458,3,228,-4119
3459,3,243,-4008
3460,-66,255,-4008
3461,42,255,-4098
3462,42,255,-4098
3463,-30,255,-4050
3464,-30,267,-4068
3465,-15,222,-4068
3466,-66,222,-4104
3467,-66,168,-4104
3468,-30,168,-4113
3469,-30,249,-4128
3470,36,222,-4128
3471,75,222,-4098
3472,75,261,-4098
3473,-78,261,-4059
3474,-78,258,-4128
3475,-33,261,-4128
3476,-12,261,-4143
3477,-12,207,-4143
3478,-63,207,-4185
3479,-63,219,-4134
3480,-51,219,-4134
3481,-60,219,-4164
3482,-60,336,-4164
3483,0,336,-4083
3484,0,258,-4098
3485,-45,201,-4098
3486,-57,201,-4095
3487,-57,258,-4095
3488,-9,258,-4143
3489,-9,186,-4104
3490,-9,273,-4104
3491,-36,273,-3999
3492,-36,267,-3999
3493,-24,267,-4140
3494,-24,225,-4155
3495,24,249,-4155
3496,27,249,-4113
3497,27,228,-4113
3498,0,228,-4080
3499,0,312,-4083
3500,-6,207,-4083
3501,-69,207,-4158
3502,-69,264,-4158
3503,15,264,-4089
3504,15,207,-4185
3505,-30,222,-4185
3506,-57,222,-4080
3507,-57,231,-4080
3508,-18,231,-4065
3509,-18,300,-4125
3510,6,210,-4125
3511,0,210,-4095
3512,0,264,-4095
3513,-48,264,-4128
3514,-48,267,-4089
3515,-9,219,-4089
3516,54,219,-4098
3517,54,249,-4098
3518,18,249,-4128
3519,18,276,-4104
3520,54,282,-4104
3521,9,282,-4149
3522,9,240,-4149
3523,-30,240,-4143
3524,-30,282,-4098
3525,-24,219,-4098
3526,33,219,-4053
3527,33,264,-4053
3528,72,264,-4053
3529,72,279,-4065
3530,-15,303,-4065
3531,-33,303,-4068
3532,-33,276,-4128
3533,0,276,-4128
3534,0,207,-4164
3535,-9,258,-4164
3536,-12,258,-4125
3537,-12,327,-4119
3538,-9,327,-4119
3539,-9,216,-4134
3540,-9,240,-4134
3541,-27,240,-4119
3542,-27,273,-4074
3543,-6,273,-4074
3544,-6,276,-4149
3545,18,258,-4149
3546,27,258,-4173
3547,27,282,-4143
3548,63,282,-4143
3549,63,246,-4128
3550,-9,240,-4128
3551,-36,240,-4134
3552,-36,228,-4119
3553,15,228,-4119
3554,15,273,-4158
3555,57,258,-4158
3556,3,258,-4128
3557,3,237,-4149
3558,-27,237,-4149
3559,-27,261,-4149
3560,-27,243,-4149
3561,39,243,-4089
3562,39,300,-4098
3563,-6,300,-4098
3564,-6,276,-4089
3565,21,291,-4089
3566,-27,291,-4080
3567,-27,285,-4104
3568,21,285,-4104
3569,21,255,-4110
3570,-9,261,-4110
3571,6,261,-4113
3572,6,267,-4110
3573,54,267,-4110
3574,54,207,-4125
3575,21,267,-4125
3576,51,267,-4125
3577,51,300,-4074
3578,27,261,-4074
3579,27,261,-4095
3580,-9,270,-4095
3581,51,270,-4065
3582,51,291,-4164
3583,45,258,-4164
3584,45,258,-4179
3585,18,282,-4179
3586,-12,282,-4125
3587,-12,270,-4149
3588,-33,321,-4149
3589,-33,321,-4080
3590,-30,330,-4080
3591,0,330,-4110
3592,0,237,-4110
3593,15,279,-4110
3594,15,279,-4095
3595,0,255,-4095
3596,18,255,-4065
3597,18,297,-4155
3598,6,291,-4155
3599,6,291,-4104
3600,-15,306,-4104
3601,9,306,-4173
3602,9,282,-4089
3603,27,240,-4089
3604,27,240,-4155
3605,39,309,-4155
3606,63,309,-4104
3607,63,297,-4119
3608,9,300,-4119
3609,9,300,-4134
3610,-36,303,-4134
3611,-12,303,-4164
3612,-12,252,-4098
3613,78,255,-4098
3614,78,255,-4113
3615,15,297,-4113
3616,0,297,-4134
3617,0,276,-4074
3618,27,309,-4074
3619,27,309,-4104
3620,24,330,-4104
3621,36,330,-4089
3622,36,315,-4140
3623,-18,270,-4140
3624,-18,270,-4164
3625,-42,267,-4164
3626,3,267,-4191
3627,3,282,-4170
3628,27,276,-4170
3629,27,276,-4080
3630,54,384,-4080
3631,24,384,-4110
3632,24,291,-4083
3633,27,294,-4083
3634,27,294,-4128
3635,33,246,-4128
3636,-18,246,-4143
3637,-18,291,-4125
3638,51,261,-4125
3639,51,261,-4164
3640,3,291,-4164
3641,24,291,-4140
3642,24,324,-4149
3643,18,321,-4149
3644,18,321,-4065
3645,3,360,-4065
3646,-9,360,-4119
3647,-9,258,-4110
3648,-6,234,-4110
3649,-6,234,-4080
3650,0,312,-4080
3651,63,312,-4110
3652,63,318,-4113
3653,72,300,-4113
3654,21,300,-4119
3655,21,297,-4119
3656,21,297,-4098
3657,21,294,-4164
3658,69,264,-4164
3659,69,264,-4104
3660,84,273,-4104
3661,33,273,-4134
3662,33,324,-4128
3663,-27,309,-4128
3664,0,309,-4059
3665,0,318,-4059
3666,27,318,-4185
3667,27,285,-4095
3668,27,270,-4095
3669,39,270,-4125
3670,39,249,-4125
3671,24,249,-4098
3672,24,300,-4155
3673,0,297,-4155
3674,-24,297,-4110
3675,-24,300,-4110
3676,24,300,-4119
3677,24,240,-4119
3678,33,249,-4119
3679,3,249,-4110
3680,3,243,-4110
3681,-9,243,-4074
3682,-9,279,-4110
3683,57,288,-4110
3684,51,288,-4098
3685,51,357,-4098
3686,3,357,-4098
3687,3,300,-4104
3688,6,264,-4104
3689,75,264,-4083
3690,75,279,-4083
3691,42,279,-4059
3692,42,318,-4095
3693,69,300,-4095
3694,36,300,-4065
3695,36,264,-4065
3696,33,264,-4104
3697,33,267,-4170
3698,3,291,-4170
3699,45,291,-4089
3700,45,282,-4089
3701,-12,282,-4134
3702,-12,300,-4125
3703,0,327,-4125
3704,-18,327,-4074
3705,-18,255,-4089
3706,54,255,-4089
3707,54,279,-4170
3708,42,249,-4170
3709,0,249,-4164
3710,0,249,-4119
3711,-78,249,-4119
3712,-78,309,-4089
3713,18,291,-4089
3714,51,291,-4143
3715,51,249,-4149
3716,6,249,-4149
3717,6,192,-4155
3718,-6,288,-4155
3719,-24,288,-4155
3720,-24,288,-4140
3721,-75,288,-4140
3722,-75,264,-4023
3723,-51,288,-4023
3724,36,288,-4074
3725,36,249,-4038
3726,129,249,-4038
3727,129,219,-4029
3728,123,279,-4029
3729,78,279,-4050
3730,78,273,-4035
3731,123,273,-4035
3732,123,255,-3960
3733,210,282,-3960
3734,270,282,-4035
3735,270,255,-3993
3736,222,255,-3993
3737,222,258,-4050
3738,195,228,-4050
3739,120,228,-4164
3740,120,198,-4245
3741,111,198,-4245
3742,111,177,-4245
3743,90,261,-4245
3744,60,261,-4200
3745,60,357,-4140
3746,60,357,-4140
3747,60,279,-4245
3748,-18,240,-4245
3749,-126,240,-4260
3750,-126,276,-4326
3751,-117,276,-4326
3752,-117,168,-4254
3753,-138,312,-4254
3754,-93,312,-4095
3755,-93,315,-4170
3756,-135,315,-4170
3757,-135,402,-4023
3758,-126,300,-4023
3759,-180,300,-4020
3760,-180,204,-4020
3761,-156,204,-4080
3762,-156,264,-4050
3763,-117,312,-4050
3764,-66,312,-4080
3765,-66,327,-4080
3766,-174,327,-4020
3767,-174,279,-4053
3768,-180,171,-4053
3769,-129,171,-4068
3770,-129,234,-4068
3771,42,234,-3993
3772,42,246,-4080
3773,15,186,-4080
3774,15,186,-4113
3775,15,111,-4113
3776,15,111,-4128
3777,15,213,-4098
3778,63,147,-4098
3779,141,147,-4110
3780,141,219,-4110
3781,69,219,-4098
3782,69,279,-4053
3783,72,261,-4053
3784,51,261,-4113
3785,51,222,-4113
3786,162,222,-4140
3787,162,222,-4035
3788,222,264,-4035
3789,399,264,-4095
3790,399,213,-4095
3791,267,213,-4284
3792,267,213,-4395
3793,87,273,-4395
3794,-36,273,-4329
3795,-36,375,-4329
3796,-81,375,-4299
3797,-81,300,-4254
3798,-138,270,-4254
3799,-171,270,-4143
3800,-171,285,-4143
3801,-96,285,-3993
3802,-96,357,-3888
3803,-153,264,-3888
3804,-291,264,-3828
3805,-291,216,-3828
3806,-387,216,-3873
3807,-387,216,-3837
3808,-216,261,-3837
3809,-99,261,-3789
3810,-99,300,-3789
3811,-51,300,-3879
3812,-51,300,-3975
3813,-51,315,-3975
3814,-36,315,-4023
3815,-36,177,-4023
3816,-12,177,-4215
3817,-12,207,-4266
3818,-42,210,-4266
3819,-36,210,-4320
3820,-36,225,-4320
3821,75,225,-4326
3822,75,318,-4326
3823,90,300,-4326
3824,-9,300,-4341
3825,-9,279,-4341
3826,-183,279,-4386
3827,-183,270,-4299
3828,-168,300,-4299
3829,-51,300,-4140
3830,-51,315,-4140
3831,-42,315,-4113
3832,-42,285,-4128
3833,-132,315,-4128
3834,-213,315,-4095
3835,-213,264,-4095
3836,-183,264,-4065
3837,-183,264,-4095
3838,-66,336,-4095
3839,54,336,-3993
3840,54,297,-3993
3841,-27,297,-4044
3842,-27,303,-4134
3843,-48,264,-4134
3844,-48,264,-4053
3845,36,267,-4053
3846,108,267,-4068
3847,108,279,-4083
3848,138,321,-4083
3849,138,321,-4143
3850,18,255,-4143
3851,21,255,-4191
3852,21,327,-4134
3853,18,324,-4134
3854,18,324,-4158
3855,60,300,-4158
3856,51,300,-4119
3857,51,336,-4179
3858,-45,315,-4179
3859,-45,315,-4209
3860,-120,234,-4209
3861,-84,234,-4158
3862,-84,294,-4155
3863,-12,354,-4155
3864,-12,354,-4110
3865,-45,318,-4110
3866,-75,318,-4098
3867,-75,270,-4104
3868,-60,318,-4104
3869,-60,318,-4065
3870,-66,318,-4065
3871,-9,318,-4140
3872,-9,285,-4098
3873,-30,300,-4098
3874,-30,300,-4053
3875,0,312,-4053
3876,0,312,-4149
3877,0,363,-4140
3878,36,312,-4140
3879,36,312,-4095
3880,75,342,-4095
3881,90,342,-4185
3882,90,291,-4170
3883,87,288,-4170
3884,87,288,-4164
3885,120,321,-4164
3886,84,321,-4179
3887,84,285,-4149
3888,-6,285,-4149
3889,-6,285,-4140
3890,57,309,-4140
3891,-51,309,-4080
3892,-51,285,-3984
3893,-33,261,-3984
3894,-33,261,-4074
3895,-78,291,-4074
3896,-27,291,-4014
3897,-27,273,-4065
3898,-120,279,-4065
3899,-120,279,-4038
3900,-24,264,-4038
3901,-15,264,-4140
3902,-15,300,-4023
3903,-45,294,-4023
3904,-45,294,-4140
3905,-99,270,-4140
3906,-69,270,-4125
3907,-69,285,-4104
3908,-45,264,-4104
3909,-45,264,-4209
3910,-60,342,-4209
3911,6,342,-4185
3912,6,279,-4191
3913,-30,285,-4191
3914,-30,285,-4119
3915,24,309,-4119
3916,57,309,-4080
3917,57,324,-4110
3918,39,312,-4110
3919,39,312,-4128
3920,27,333,-4128
3921,-84,333,-4044
3922,-84,351,-4023
3923,9,285,-4023
3924,9,285,-4053
3925,27,408,-4053
3926,-45,408,-4179
3927,-45,315,-4140
3928,-9,285,-4140
3929,-9,285,-4164
3930,-42,312,-4164
3931,0,312,-4191
3932,0,357,-4128
3933,24,324,-4128
3934,24,324,-4185
3935,-63,285,-4185
3936,18,285,-4158
3937,18,306,-4098
3938,84,351,-4098
3939,84,351,-4083
3940,51,381,-4083
3941,-18,381,-4119
3942,-18,291,-4179
3943,-36,264,-4179
3944,-36,264,-4104
3945,-45,282,-4104
3946,-84,282,-4083
3947,-84,267,-4098
3948,-87,264,-4098
3949,-87,264,-4065
3950,-51,294,-4065
3951,-36,294,-4089
3952,-36,309,-4074
3953,-27,270,-4074
3954,-9,270,-4125
3955,-9,300,-4125
3956,-42,300,-4089
3957,-42,252,-4140
3958,-78,252,-4140
3959,-51,252,-4125
3960,-51,282,-4125
3961,21,282,-4104
3962,21,285,-4089
3963,9,312,-4089
3964,75,312,-4104
3965,75,270,-4104
3966,36,270,-4179
3967,36,246,-4155
3968,-27,261,-4155
3969,-51,261,-4149
3970,-51,267,-4149
3971,9,267,-4155
3972,9,276,-4134
3973,33,306,-4134
3974,-6,306,-4095
3975,-6,309,-4095
3976,-42,309,-4059
3977,-42,264,-4140
3978,-18,276,-4140
3979,-12,276,-4119
3980,-12,264,-4119
3981,-42,264,-4206
3982,-42,318,-4140
3983,21,279,-4140
3984,36,279,-4074
3985,36,240,-4074
3986,-33,240,-4050
3987,-33,282,-4074
3988,-6,288,-4074
3989,42,288,-4038
3990,42,306,-4038
3991,6,306,-4053
3992,6,306,-4089
3993,-12,258,-4089
3994,-114,258,-4065
3995,-114,231,-4065
3996,-48,231,-4191
3997,-48,303,-4143
3998,36,321,-4143
3999,39,321,-4155
4000,39,297,-4155
4001,36,297,-4110
4002,36,363,-4143
4003,0,351,-4143
4004,-45,351,-4194
4005,-45,312,-4194
4006,3,312,-4185
4007,3,276,-4128
4008,9,315,-4128
4009,0,315,-4179
4010,0,327,-4179
4011,3,327,-4083
4012,3,336,-4083
4013,-9,324,-4083
4014,57,324,-4110
4015,57,309,-4110
4016,3,309,-4128
4017,3,309,-4140
4018,-27,306,-4140
4019,-12,306,-4080
4020,-12,357,-4080
4021,9,357,-4068
4022,9,372,-4104
4023,-42,276,-4104
4024,0,276,-4089
4025,0,285,-4089
4026,69,285,-4170
4027,69,306,-4110
4028,69,309,-4110
4029,-6,309,-4128
4030,-6,354,-4128
4031,-60,354,-4134
4032,-60,375,-4074
4033,-15,312,-4074
4034,21,312,-4155
4035,21,444,-4155
4036,42,444,-4209
4037,42,357,-4023
4038,27,318,-4023
4039,6,318,-4014
4040,6,312,-4014
4041,3,312,-4083
4042,3,330,-4059
4043,15,309,-4059
4044,27,309,-4119
4045,27,339,-4119
4046,111,339,-4050
4047,111,375,-4098
4048,-63,333,-4098
4049,63,333,-4128
4050,63,345,-4128
4051,54,345,-4125
4052,54,378,-4104
4053,57,408,-4104
4054,-12,408,-4065
4055,-12,405,-4065
4056,-18,405,-3990
4057,-18,447,-4005
4058,-6,444,-4005
4059,0,444,-4044
4060,0,447,-4044
4061,39,447,-4038
4062,39,339,-4065
4063,21,441,-4065
4064,-15,441,-4143
4065,-15,465,-4143
4066,-45,465,-4134
4067,-45,417,-4113
4068,21,462,-4113
4069,21,462,-4134
4070,84,450,-4134
4071,126,450,-4191
4072,126,516,-4110
4073,159,561,-4110
4074,159,561,-4023
4075,144,645,-4023
4076,129,645,-4029
4077,129,678,-3873
4078,120,612,-3873
4079,120,612,-3969
4080,102,531,-3969
4081,-51,531,-4038
4082,-51,474,-4284
4083,-171,465,-4284
4084,-171,465,-4245
4085,-27,702,-4245
4086,108,702,-4098
4087,108,822,-4080
4088,234,843,-4080
4089,234,843,-4185
4090,330,834,-4185
4091,330,834,-4104
4092,330,783,-4098
4093,285,714,-4098
4094,285,714,-4173
4095,330,687,-4173
4096,378,687,-4164
4097,378,708,-4074
4098,339,753,-4074
4099,339,753,-4023
4100,309,783,-4023
4101,234,783,-4068
4102,234,777,-4005
4103,180,738,-4005
4104,180,738,-4029
4105,279,750,-4029
4106,261,750,-4020
4107,261,789,-3945
4108,246,783,-3945
4109,246,783,-3963
4110,198,714,-3963
4111,156,714,-3999
4112,156,759,-4110
4113,141,714,-4110
4114,141,714,-4098
4115,225,759,-4098
4116,261,759,-4053
4117,261,783,-4059
4118,264,786,-4059
4119,264,786,-4134
4120,195,780,-4134
4121,174,780,-4074
4122,174,738,-4149
4123,222,771,-4149
4124,243,771,-4095
4125,243,732,-4095
4126,234,732,-4059
4127,234,750,-4050
4128,249,804,-4050
4129,252,804,-4050
4130,252,777,-4050
4131,252,777,-4035
4132,252,756,-4089
4133,210,735,-4089
4134,246,735,-4080
4135,246,726,-4080
4136,276,726,-4029
4137,276,798,-4020
4138,294,783,-4020
4139,294,783,-4014
4140,216,807,-4014
4141,156,807,-4074
4142,156,753,-4080
4143,132,726,-4080
4144,132,726,-4068
4145,252,789,-4068
4146,291,789,-4125
4147,291,789,-4014
4148,276,810,-4014
4149,276,810,-4014
4150,195,807,-4014
4151,213,807,-4029
4152,213,765,-4044
4153,243,756,-4044
4154,243,756,-4134
4155,264,780,-4134
4156,267,780,-4083
4157,267,783,-4068
4158,222,783,-4068
4159,222,783,-4098
4160,243,843,-4098
4161,261,843,-4065
4162,261,792,-4068
4163,183,744,-4068
4164,183,744,-3993
4165,189,777,-3993
4166,234,777,-4044
4167,234,744,-3999
4168,270,798,-3999
4169,270,798,-4044
4170,243,798,-4044
4171,213,798,-4005
4172,213,795,-4059
4173,195,765,-4059
4174,195,765,-4038
4175,198,756,-4038
4176,294,756,-4104
4177,294,750,-4053
4178,258,786,-4053
4179,258,786,-3984
4180,264,801,-3984
4181,243,801,-4023
4182,243,777,-4068
4183,174,759,-4068
4184,174,759,-4038
4185,252,786,-4038
4186,264,786,-4008
4187,264,780,-4065
4188,246,747,-4065
4189,246,747,-4095
4190,216,783,-4095
4191,240,783,-4044
4192,240,786,-4014
4193,261,771,-4014
4194,261,771,-4044
4195,222,771,-4044
4196,234,771,-4050
4197,234,771,-4095
4198,270,777,-4095
4199,270,777,-4074
4200,261,807,-4074
4201,231,807,-4050
4202,231,777,-4044
4203,189,750,-4044
4204,189,750,-4029
4205,225,765,-4029
4206,321,765,-4038
4207,321,795,-3978
4208,285,795,-3978
4209,285,795,-4020
4210,261,768,-4020
4211,171,768,-4053
4212,171,759,-4059
4213,228,783,-4059
4214,228,783,-4050
4215,276,756,-4050
4216,252,756,-4089
4217,252,741,-4023
4218,192,735,-4023
4219,192,735,-4044
4220,147,798,-4044
4221,159,798,-4035
4222,159,702,-4119
4223,87,690,-4119
4224,87,690,-4059
4225,201,729,-4059
4226,231,729,-4014
4227,231,732,-4065
4228,222,795,-4065
4229,222,795,-4038
4230,201,732,-4038
4231,249,732,-4074
4232,249,753,-4050
4233,240,729,-4050
4234,252,729,-4065
4235,252,675,-4065
4236,162,675,-4110
4237,162,735,-4128
4238,198,723,-4128
4239,198,723,-4038
4240,162,726,-4038
4241,264,726,-4104
4242,264,705,-4158
4243,312,738,-4158
4244,270,738,-4050
4245,270,663,-4050
4246,309,663,-4020
4247,309,687,-4080
4248,339,696,-4080
4249,201,696,-4110
4250,201,585,-4110
4251,138,585,-4110
4252,138,582,-4134
4253,264,552,-4134
4254,252,552,-4185
4255,252,486,-4185
4256,429,486,-4224
4257,429,567,-4179
4258,252,600,-4179
4259,258,600,-4215
4260,258,570,-4215
4261,201,570,-4155
4262,201,426,-4215
4263,159,492,-4215
4264,318,492,-4095
4265,318,681,-4095
4266,525,681,-3960
4267,525,792,-3900
4268,441,495,-3900
4269,210,495,-4038
4270,210,333,-4038
4271,75,333,-4008
4272,75,237,-4005
4273,234,540,-4005
4274,276,540,-3933
4275,276,624,-3933
4276,126,624,-3849
4277,126,540,-3864
4278,-93,345,-3864
4279,72,345,-3879
4280,72,396,-3879
4281,-87,396,-4173
4282,-87,165,-4269
4283,102,519,-4269
4284,141,519,-4155
4285,141,780,-4155
4286,-144,780,-4044
4287,-144,366,-4083
4288,-171,405,-4083
4289,-147,405,-4236
4290,-147,441,-4236
4291,147,441,-4200
4292,147,630,-4209
4293,300,420,-4209
4294,-129,420,-4296
4295,-129,408,-4296
4296,-363,408,-4191
4297,-363,390,-4326
4298,-282,183,-4326
4299,-207,183,-4395
4300,-207,234,-4299
4301,-219,234,-4299
4302,-219,672,-4098
4303,-51,528,-4098
4304,-372,528,-4095
4305,-372,477,-4143
4306,-306,477,-4143
4307,-306,165,-4260
4308,-156,432,-4260
4309,-204,432,-4221
4310,-204,186,-4269
4311,-96,186,-4269
4312,-96,306,-4110
4313,-285,219,-4110
4314,-405,219,-4119
4315,-405,219,-4053
4316,-138,219,-4053
4317,-138,237,-4023
4318,-27,291,-4023
4319,-255,291,-3990
4320,-255,78,-4074
4321,-213,78,-4074
4322,-213,87,-4023
4323,-309,39,-4023
4324,-324,39,-4008
4325,-324,-6,-3909
4326,-237,-6,-3909
4327,-237,96,-3909
4328,-342,60,-3909
4329,-489,60,-3924
4330,-489,-42,-3954
4331,-258,-42,-3954
4332,-258,6,-3918
4333,-150,45,-3918
4334,-171,45,-4014
4335,-171,-120,-3984
4336,-375,-120,-3984
4337,-375,-3,-3963
4338,-171,96,-3963
4339,-372,96,-3984
4340,-372,72,-3960
4341,-231,72,-3960
4342,-231,-66,-4095
4343,-459,-99,-4095
4344,-270,-99,-4050
4345,-270,-201,-4158
4346,-393,-201,-4158
4347,-393,-72,-4029
4348,-462,129,-4029
4349,-363,129,-4020
4350,-363,33,-4119
4351,-546,33,-4119
4352,-546,-45,-4155
4353,-414,21,-4155
4354,-264,21,-4173
4355,-264,-21,-4263
4356,-444,-21,-4263
4357,-444,-42,-4230
4358,-717,0,-4230
4359,-447,0,-4173
4360,-447,123,-4260
4361,-447,123,-4260
4362,-447,-78,-4314
4363,-522,3,-4314
4364,-240,3,-4194
4365,-240,3,-4170
4366,-483,3,-4170
4367,-483,6,-4113
4368,-474,84,-4113
4369,-378,84,-4104
4370,-378,-3,-4158
4371,-411,-3,-4158
4372,-411,-36,-4125
4373,-390,60,-4125
4374,-426,60,-4068
4375,-426,-15,-4134
4376,-501,45,-4134
4377,-501,45,-3978
4378,-513,72,-3978
4379,-282,72,-4020
4380,-282,-24,-4095
4381,-471,-27,-4095
4382,-471,-27,-4014
4383,-444,51,-4014
4384,-321,51,-4089
4385,-321,33,-4059
4386,-609,-48,-4059
4387,-609,-48,-4074
4388,-450,3,-4074
4389,-162,3,-4053
4390,-162,81,-4095
4391,-420,48,-4095
4392,-420,48,-4164
4393,-510,-33,-4164
4394,-321,-33,-4128
4395,-321,51,-4140
4396,-303,-15,-4140
4397,-303,-15,-4185
4398,-309,39,-4185
4399,-387,39,-4158
4400,-387,-12,-4200
4401,-474,84,-4200
4402,-474,84,-4113
4403,-321,60,-4113
4404,-369,60,-4119
4405,-369,-30,-4158
4406,-354,69,-4158
4407,-354,69,-4110
4408,-249,162,-4110
4409,-390,162,-4035
4410,-390,54,-4104
4411,-549,12,-4104
4412,-549,12,-4125
4413,-402,-3,-4125
4414,-303,-3,-4170
4415,-303,39,-4155
4416,-327,102,-4155
4417,-327,102,-4113
4418,-321,81,-4113
4419,-378,81,-4128
4420,-378,75,-4053
4421,-381,-12,-4053
4422,-381,-12,-4188
4423,-405,12,-4188
4424,-378,12,-4134
4425,-378,-30,-4155
4426,-291,63,-4155
4427,-291,63,-4158
4428,-324,84,-4158
4429,-318,84,-4059
4430,-318,63,-4053
4431,-321,27,-4053
4432,-321,27,-4110
4433,-444,-15,-4110
4434,-363,-15,-4068
4435,-363,66,-4065
4436,-183,63,-4065
4437,-231,63,-4098
4438,-231,33,-4098
4439,-357,33,-4038
4440,-357,-36,-4098
4441,-432,57,-4098
4442,-285,57,-4110
4443,-285,18,-4110
4444,-339,18,-4104
4445,-339,54,-4155
4446,-345,18,-4155
4447,-369,18,-4074
4448,-369,54,-4074
4449,-423,54,-4104
4450,-423,27,-4158
4451,-393,0,-4158
4452,-390,0,-4143
4453,-390,51,-4143
4454,-378,51,-4215
4455,-378,21,-4140
4456,-360,51,-4140
4457,-402,51,-4143
4458,-402,48,-4143
4459,-306,48,-4068
4460,-306,69,-4098
4461,-273,-27,-4098
4462,-321,-27,-4104
4463,-321,30,-4104
4464,-327,30,-4140
4465,-327,45,-4104
4466,-267,66,-4104
4467,-312,66,-4059
4468,-312,-63,-4059
4469,-303,-63,-4119
4470,-303,-6,-4185
4471,-300,45,-4185
4472,-333,45,-4095
4473,-333,45,-4053
4474,-408,45,-4053
4475,-408,6,-4044
4476,-249,54,-4044
4477,-255,54,-4089
4478,-255,3,-4083
4479,-414,3,-4083
4480,-414,-15,-4119
4481,-438,-3,-4119
4482,-321,-3,-4044
4483,-321,0,-4083
4484,-303,0,-4083
4485,-303,27,-4053
4486,-240,15,-4053
4487,-345,15,-4119
4488,-345,0,-4119
4489,-432,0,-4119
4490,-432,-15,-4125
4491,-426,12,-4125
4492,-321,12,-4128
4493,-321,96,-4095
4494,-195,96,-4095
4495,-195,-3,-4110
4496,-231,21,-4110
4497,-357,21,-4164
4498,-357,39,-4068
4499,-492,39,-4068
4500,-492,-51,-4110
4501,-342,75,-4110
4502,-243,75,-4014
4503,-243,0,-4038
4504,-294,0,-4038
4505,-294,27,-4098
4506,-264,36,-4098
4507,-312,36,-4074
4508,-312,18,-4098
4509,-414,18,-4098
4510,-414,-63,-4173
4511,-429,54,-4173
4512,-234,54,-4065
4513,-234,36,-4050
4514,-294,36,-4050
4515,-294,30,-4179
4516,-318,18,-4179
4517,-342,18,-4230
4518,-342,6,-4209
4519,-258,6,-4209
4520,-258,75,-4113
4521,-327,39,-4113
4522,-345,39,-4134
4523,-345,-21,-4203
4524,-429,-21,-4203
4525,-429,0,-4155
4526,-342,9,-4155
4527,-309,9,-4191
4528,-309,33,-4065
4529,-288,33,-4065
4530,-288,51,-4023
4531,-276,21,-4023
4532,-441,21,-3990
4533,-441,-6,-4059
4534,-645,-6,-4059
4535,-645,-123,-4140
4536,-708,33,-4140
4537,-36,33,-4104
4538,-36,75,-4080
4539,321,75,-4080
4540,321,45,-4128
4541,18,-6,-4128
4542,-252,-6,-4140
4543,-252,-168,-4113
4544,-609,-168,-4113
4545,-609,0,-4050
4546,-909,-36,-4050
4547,-339,-36,-4002
4548,-339,63,-4074
4549,27,63,-4074
4550,27,30,-4098
4551,-126,-42,-4098
4552,-273,-42,-4059
4553,-273,-36,-4068
4554,-840,-36,-4068
4555,-840,3,-4029
4556,-828,6,-4029
4557,-318,6,-4059
4558,-318,6,-4113
4559,-51,6,-4113
4560,-51,36,-4053
4561,-111,-48,-4053
4562,-447,-48,-4188
4563,-447,-81,-4149
4564,-804,-81,-4149
4565,-804,54,-4053
4566,-360,27,-4053
4567,-117,27,-4113
4568,-117,12,-4185
4569,-189,12,-4185
4570,-189,-27,-4185
4571,-405,21,-4185
4572,-603,21,-4110
4573,-603,18,-4098
4574,-483,18,-4098
4575,-483,51,-4035
4576,-201,12,-4035
4577,-288,12,-4119
4578,-288,-12,-4104
4579,-444,-12,-4104
4580,-444,-66,-4080
4581,-507,0,-4080
4582,-420,0,-4080
4583,-420,138,-4038
4584,-207,51,-4038
4585,-207,51,-4104
4586,-243,18,-4104
4587,-354,18,-4128
4588,-354,-42,-4158
4589,-477,-15,-4158
4590,-477,-15,-4110
4591,-579,-18,-4110
4592,-363,-18,-4149
4593,-363,15,-4083
4594,-222,60,-4083
4595,-222,60,-4089
4596,-243,15,-4089
4597,-318,15,-4068
4598,-318,-18,-4143
4599,-525,3,-4143
4600,-525,3,-4104
4601,-630,48,-4104
4602,-243,48,-4029
4603,-243,48,-4020
4604,-189,6,-4020
4605,-189,6,-4074
4606,-300,33,-4074
4607,-78,33,-4083
4608,-78,39,-4104
4609,-684,-63,-4104
4610,-684,-63,-4200
4611,-492,51,-4200
4612,-216,51,-4059
4613,-216,30,-4110
4614,-255,24,-4110
4615,-255,24,-4068
4616,-183,-24,-4068
4617,-312,-24,-4104
4618,-312,15,-4200
4619,-492,9,-4200
4620,-492,9,-4158
4621,-528,15,-4158
4622,-336,15,-4104
4623,-336,36,-4113
4624,-189,51,-4113
4625,-189,51,-4065
4626,-303,6,-4065
4627,-309,6,-4128
4628,-309,-15,-4170
4629,-531,-27,-4170
4630,-531,-27,-4119
4631,-423,84,-4119
4632,-183,84,-4065
4633,-183,96,-4098
4634,-225,48,-4098
4635,-294,48,-4089
4636,-294,30,-4089
4637,-462,30,-4140
4638,-462,-33,-4098
4639,-402,30,-4098
4640,-237,30,-4080
4641,-237,75,-4080
4642,-282,75,-4140
4643,-282,78,-3999
4644,-255,3,-3999
4645,-423,3,-4149
4646,-423,-18,-4149
4647,-594,-18,-4158
4648,-594,-51,-4170
4649,-312,51,-4170
4650,-180,51,-4065
4651,-180,117,-4065
4652,-252,117,-4119
4653,-252,75,-4104
4654,-360,-51,-4104
4655,-360,-51,-4173
4656,-546,-3,-4173
4657,-378,-3,-4140
4658,-378,45,-4095
4659,-222,96,-4095
4660,-222,96,-4074
4661,-213,57,-4074
4662,-276,57,-4095
4663,-276,18,-4158
4664,-408,-24,-4158
4665,-408,-24,-4038
4666,-612,-21,-4038
4667,-723,-21,-4113
4668,-723,57,-4113
4669,-483,66,-4113
4670,-483,66,-4044
4671,63,72,-4044
4672,153,72,-4098
4673,153,54,-4119
4674,-132,18,-4119
4675,-132,18,-4155
4676,-282,-30,-4155
4677,-912,-30,-4113
4678,-912,57,-4005
4679,-681,72,-4005
4680,-681,72,-4038
4681,-168,-24,-4038
4682,-234,-24,-4134
4683,-234,51,-4209
4684,-240,75,-4209
4685,-240,75,-4095
4686,-324,21,-4095
4687,-462,21,-4023
4688,-462,3,-4119
4689,-273,84,-4119
4690,-168,84,-4134
4691,-168,18,-4134
4692,-255,18,-4113
4693,-255,18,-4125
4694,-405,21,-4125
4695,-462,21,-4098
4696,-462,66,-4098
4697,-321,66,-4089
4698,-321,33,-4134
4699,-336,24,-4134
4700,-243,24,-4113
4701,-243,48,-4113
4702,-249,48,-4119
4703,-249,36,-4128
4704,-513,57,-4128
4705,-465,57,-4095
4706,-465,54,-4095
4707,-186,54,-4125
4708,-186,24,-4083
4709,-249,24,-4083
4710,-372,24,-4095
4711,-372,12,-4095
4712,-411,12,-4065
4713,-411,84,-4044
4714,-300,24,-4044
4715,-327,24,-4125
4716,-327,60,-4125
4717,-270,60,-4149
4718,-270,57,-4110
4719,-312,6,-4110
4720,-342,6,-4074
4721,-342,57,-4074
4722,-285,57,-4149
4723,-285,75,-4089
4724,-372,15,-4089
4725,-375,15,-4128
4726,-375,51,-4128
4727,-300,51,-4104
4728,-300,99,-4113
4729,-318,9,-4113
4730,-327,9,-4140
4731,-327,24,-4140
4732,-327,24,-4125
4733,-327,63,-4083
4734,-336,45,-4083
4735,-354,45,-4104
4736,-354,48,-4104
4737,-288,48,-4095
4738,-288,60,-4068
4739,-294,-63,-4068
4740,-351,-63,-4155
4741,-351,-24,-4155
4742,-267,-24,-4059
4743,-267,147,-4044
4744,-267,12,-4044
4745,-387,12,-4083
4746,-387,6,-4083
4747,-318,6,-4104
4748,-318,33,-4143
4749,-288,21,-4143
4750,-336,21,-4155
4751,-336,114,-4155
4752,-258,114,-4164
4753,-258,45,-4155
4754,-339,15,-4155
4755,-321,15,-4149
4756,-321,30,-4149
4757,-201,30,-4098
4758,-201,33,-4044
4759,-294,51,-4044
4760,-264,51,-4080
4761,-264,39,-4098
4762,-264,39,-4098
4763,-264,21,-4089
4764,-333,39,-4089
4765,-270,39,-4065
4766,-270,27,-4098
4767,-267,27,-4098
4768,-267,60,-4128
4769,-258,57,-4128
4770,-270,57,-4014
4771,-270,33,-4083
4772,-240,33,-4083
4773,-240,-27,-4113
4774,-306,33,-4113
4775,-324,33,-4089
4776,-324,0,-4095
4777,-252,0,-4095
4778,-252,96,-4053
4779,-285,6,-4053
4780,-318,6,-4113
4781,-318,-12,-4173
4782,-234,-12,-4173
4783,-234,-42,-4134
4784,-273,24,-4134
4785,-231,24,-4110
4786,-231,39,-4080
4787,-213,39,-4080
4788,-213,24,-4173
4789,-264,18,-4173
4790,-222,18,-4113
4791,-222,15,-4134
4792,-237,15,-4134
4793,-237,-3,-4140
4794,-282,21,-4140
4795,-267,21,-4098
4796,-267,54,-4119
4797,-201,54,-4119
4798,-201,30,-4119
4799,-255,63,-4119
4800,-267,63,-4149
4801,-267,-33,-4125
4802,-291,-33,-4125
4803,-291,60,-4125
4804,-273,-63,-4125
4805,-207,-63,-4119
4806,-207,75,-4038
4807,-264,75,-4038
4808,-264,51,-4158
4809,-252,3,-4158
4810,-318,3,-4191
4811,-318,57,-4095
4812,-231,57,-4095
4813,-231,6,-4110
4814,-189,48,-4110
4815,-288,48,-4080
4816,-288,36,-4125
4817,-243,36,-4125
4818,-243,45,-4083
4819,-252,45,-4083
4820,-231,45,-4065
4821,-231,33,-4104
4822,-216,33,-4104
4823,-216,15,-4149
4824,-273,-6,-4149
4825,-222,-6,-4098
4826,-222,69,-4119
4827,-168,69,-4119
4828,-168,33,-4128
4829,-255,27,-4128
4830,-285,27,-4083
4831,-285,-36,-4110
4832,-252,-36,-4110
4833,-252,45,-4113
4834,-255,39,-4113
4835,-291,39,-4080
4836,-291,21,-4104
4837,-216,21,-4104
4838,-216,-12,-4134
4839,-249,48,-4134
4840,-240,48,-4065
4841,-240,21,-4083
4842,-171,21,-4083
4843,-171,21,-4104
4844,-219,0,-4104
4845,-252,0,-4134
4846,-252,51,-4053
4847,-201,12,-4053
4848,-201,12,-4065
4849,-234,57,-4065
4850,-165,57,-4173
4851,-165,54,-4110
4852,-189,9,-4110
4853,-189,9,-4164
4854,-306,27,-4164
4855,-243,27,-4149
4856,-243,60,-4113
4857,-318,0,-4113
4858,-318,0,-4128
4859,-318,96,-4128
4860,-165,96,-4185
4861,-165,78,-4155
4862,-207,27,-4155
4863,-207,27,-4155
4864,-282,3,-4155
4865,-300,3,-4173
4866,-300,63,-4098
4867,-249,-6,-4098
4868,-249,-6,-4113
4869,-189,54,-4113
4870,-135,54,-4128
4871,-135,45,-4083
4872,-165,45,-4083
4873,-165,63,-4083
4874,-312,-6,-4083
4875,-243,-6,-4119
4876,-243,12,-4080
4877,-189,12,-4080
4878,-189,72,-4155
4879,-204,-21,-4155
4880,-219,-21,-4110
4881,-219,84,-4095
4882,-204,84,-4095
4883,-204,57,-4095
4884,-294,78,-4095
4885,-267,78,-4128
4886,-267,54,-4164
4887,-165,54,-4164
4888,-165,36,-4125
4889,-189,30,-4125
4890,-219,30,-4098
4891,-219,102,-4095
4892,-252,102,-4095
4893,-252,0,-4164
4894,-219,87,-4164
4895,-198,87,-4155
4896,-198,78,-4149
4897,-243,0,-4149
4898,-243,0,-4044
4899,-258,48,-4044
4900,-234,48,-4095
4901,-234,135,-4059
4902,-189,30,-4059
4903,-189,30,-4080
4904,-222,24,-4080
4905,-183,24,-4140
4906,-183,18,-4110
4907,-237,84,-4110
4908,-237,84,-4119
4909,-168,51,-4119
4910,-168,51,-4089
4911,-168,45,-4170
4912,-309,66,-4170
4913,-309,66,-4053
4914,-216,33,-4053
4915,-198,33,-4140
4916,-198,60,-4149
4917,-270,27,-4149
4918,-270,27,-4110
4919,-240,57,-4110
4920,-225,57,-4080
4921,-225,27,-4074
4922,-267,45,-4074
4923,-267,45,-4095
4924,-189,54,-4095
4925,-162,54,-4194
4926,-162,75,-4119
4927,-180,12,-4119
4928,-180,12,-4128
4929,-189,63,-4128
4930,-201,63,-4194
4931,-201,36,-4113
4932,-183,63,-4113
4933,-183,63,-4128
4934,-219,81,-4128
4935,-219,81,-4155
4936,-219,15,-4113
4937,-219,63,-4113
4938,-219,63,-4185
4939,-222,24,-4185
4940,-225,24,-4140
4941,-225,81,-4104
4942,-294,66,-4104
4943,-294,66,-4095
4944,-231,84,-4095
4945,-180,84,-4104
4946,-180,27,-4098
4947,-252,60,-4098
4948,-252,60,-4194
4949,-240,48,-4194
4950,-174,48,-4050
4951,-174,78,-4080
4952,-252,60,-4080
4953,-195,60,-4140
4954,-195,63,-4140
4955,-195,63,-4113
4956,-195,6,-4110
4957,-231,75,-4110
4958,-204,75,-4149
4959,-204,33,-4149
4960,-303,33,-4125
4961,-303,39,-4128
4962,-255,87,-4128
4963,-231,87,-4089
4964,-231,33,-4089
4965,-270,33,-4065
4966,-270,66,-4035
4967,-234,24,-4035
4968,-225,24,-4098
4969,-225,21,-4098
4970,-222,21,-4083
4971,-222,33,-4104
4972,-216,84,-4104
4973,-165,84,-4083
4974,-165,48,-4083
4975,-318,48,-4020
4976,-318,57,-4050
4977,-258,48,-4050
4978,-168,48,-4155
4979,-168,51,-4155
4980,-198,51,-4113
4981,-198,39,-4119
4982,-213,0,-4119
4983,-165,0,-4128
4984,-165,90,-4128
4985,-180,90,-4143
4986,-180,15,-4053
4987,-204,15,-4053
4988,-219,15,-4140
4989,-219,69,-4140
4990,-201,69,-4080
4991,-201,63,-4113
4992,-264,90,-4113
4993,-270,90,-4119
4994,-270,12,-4119
4995,-213,12,-4140
4996,-213,60,-4080
4997,-237,39,-4080
4998,-273,39,-4044
4999,-273,36,-4044
5000,-207,36,-4083
5001,-207,45,-4098
5002,-162,33,-4098
5003,-237,33,-4089
5004,-237,27,-4089
5005,-249,27,-4149
5006,-249,18,-4194
5007,-231,63,-4194
5008,-147,63,-4125
5009,-147,63,-4125
5010,-171,63,-4068
5011,-171,15,-4119
5012,-183,36,-4119
5013,-225,36,-4125
5014,-225,-3,-4125
5015,-237,-3,-4095
5016,-237,15,-4020
5017,-225,21,-4020
5018,-234,21,-4059
5019,-234,60,-4059
5020,-273,60,-4065
5021,-273,72,-4083
5022,-267,51,-4083
5023,-249,51,-4185
5024,-249,69,-4185
5025,-213,69,-4068
5026,-213,66,-4074
5027,-165,69,-4074
5028,-258,69,-4125
5029,-258,15,-4125
5030,-249,15,-4164
5031,-249,33,-4140
5032,-204,21,-4140
5033,-216,21,-4113
5034,-216,54,-4113
5035,-204,54,-4170
5036,-204,69,-4173
5037,-204,69,-4173
5038,-240,69,-4080
5039,-240,45,-4080
5040,-300,45,-4155
5041,-300,48,-4128
5042,-189,48,-4128
5043,-237,48,-4149
5044,-237,15,-4134
5045,-255,15,-4134
5046,-255,18,-4065
5047,-219,60,-4065
5048,-294,60,-4080
5049,-294,66,-4113
5050,-219,66,-4113
5051,-219,36,-4098
5052,-186,57,-4098
5053,-234,57,-4125
5054,-234,48,-4095
5055,-186,48,-4095
5056,-186,69,-4113
5057,-201,60,-4113
5058,-231,60,-4080
5059,-231,36,-4080
5060,-195,36,-4080
5061,-195,48,-4119
5062,-165,-3,-4119
5063,-153,-3,-4110
5064,-153,48,-4065
5065,-240,48,-4065
5066,-240,3,-4158
5067,-249,39,-4158
5068,-150,39,-4083
5069,-150,45,-4089
5070,-165,45,-4089
5071,-165,78,-4110
5072,-294,-24,-4110
5073,-258,-24,-4104
5074,-258,45,-4104
5075,-222,45,-4104
5076,-222,51,-4125
5077,-249,69,-4125
5078,-174,69,-4044
5079,-174,108,-4083
5080,-237,108,-4083
5081,-237,48,-4110
5082,-234,12,-4110
5083,-252,12,-4083
5084,-252,-3,-4155
5085,-195,-3,-4155
5086,-195,99,-4113
5087,-189,33,-4113
5088,-237,33,-4185
5089,-237,24,-4143
5090,-267,24,-4143
5091,-267,9,-4128
5092,-219,36,-4128
5093,-150,36,-4068
5094,-150,24,-4125
5095,-186,24,-4125
5096,-186,36,-4098
5097,-270,15,-4098
5098,-225,15,-4080
5099,-225,84,-4074
5100,-183,84,-4074
5101,-183,15,-4170
5102,-258,24,-4170
5103,-219,24,-4110
5104,-219,57,-4110
5105,-285,57,-4110
5106,-285,57,-4098
5107,-291,18,-4098
5108,-231,18,-4143
5109,-231,30,-4125
5110,-183,30,-4125
5111,-183,30,-4149
5112,-222,51,-4149
5113,-231,51,-4119
5114,-231,48,-4191
5115,-324,48,-4191
5116,-324,69,-4149
5117,-252,45,-4149
5118,-195,45,-4185
5119,-195,51,-4140
5120,-318,51,-4140
5121,-318,-18,-4098
5122,-267,102,-4098
5123,-219,102,-4095
5124,-219,36,-4065
5125,-255,36,-4065
5126,-255,84,-4059
5127,-219,21,-4059
5128,-201,21,-4080
5129,-201,30,-4125
5130,-258,30,-4125
5131,-258,18,-4104
5132,-201,75,-4104
5133,-174,75,-4068
5134,-174,39,-4125
5135,-237,39,-4125
5136,-237,75,-4083
5137,-225,15,-4083
5138,-216,15,-4173
5139,-216,15,-4158
5140,-225,15,-4158
5141,-225,54,-4104
5142,-252,57,-4104
5143,-222,57,-4164
5144,-222,54,-4125
5145,-219,54,-4125
5146,-219,60,-4083
5147,-189,33,-4083
5148,-174,33,-4104
5149,-174,63,-4095
5150,-204,63,-4095
5151,-204,12,-4134
5152,-234,54,-4134
5153,-240,54,-4140
5154,-240,57,-4125
5155,-222,57,-4125
5156,-222,63,-4134
5157,-234,66,-4134
5158,-303,66,-4059
5159,-303,-6,-4140
5160,-255,-6,-4140
5161,-255,105,-4095
5162,-198,63,-4095
5163,-318,63,-4098
5164,-318,54,-4104
5165,-258,54,-4104
5166,-258,30,-4044
5167,-186,48,-4044
5168,-207,48,-4098
5169,-207,69,-4104
5170,-213,69,-4104
5171,-213,21,-4134
5172,-201,108,-4134
5173,-270,108,-4125
5174,-270,3,-4173
5175,-186,3,-4173
5176,-186,75,-4110
5177,-150,24,-4110
5178,-171,24,-4128
5179,-171,63,-4125
5180,-183,63,-4125
5181,-183,15,-4140
5182,-213,30,-4140
5183,-240,30,-4113
5184,-240,69,-4089
5185,-171,69,-4089
5186,-171,18,-4128
5187,-285,90,-4128
5188,-288,90,-4074
5189,-288,24,-4089
5190,-237,24,-4089
5191,-237,9,-4080
5192,-195,18,-4080
5193,-207,18,-4140
5194,-207,69,-4143
5195,-240,69,-4143
5196,-240,57,-4140
5197,-267,105,-4140
5198,-213,105,-4134
5199,-213,57,-4149
5200,-183,57,-4149
5201,-183,0,-4149
5202,-135,69,-4149
5203,-168,69,-4179
5204,-168,48,-4104
5205,-63,51,-4104
5206,-63,51,-4098
5207,-372,33,-4098
5208,-321,33,-4173
5209,-321,57,-4128
5210,-180,27,-4128
5211,-180,27,-4170
5212,-207,15,-4170
5213,-201,15,-4143
5214,-201,69,-4134
5215,-225,69,-4134
5216,-225,69,-4020
5217,-306,102,-4020
5218,-234,102,-4059
5219,-234,18,-4059
5220,-231,18,-4059
5221,-231,54,-4125
5222,-216,24,-4125
5223,-234,24,-4113
5224,-234,90,-4089
5225,-213,75,-4089
5226,-213,75,-4125
5227,-147,45,-4125
5228,-153,45,-4128
5229,-153,66,-4206
5230,-219,48,-4206
5231,-219,48,-4173
5232,-111,57,-4173
5233,-99,57,-4104
5234,-99,72,-4143
5235,-120,66,-4143
5236,-120,66,-4089
5237,-183,30,-4089
5238,-165,30,-4104
5239,-165,9,-4170
5240,-186,69,-4170
5241,-186,69,-4068
5242,-168,84,-4068
5243,-165,84,-4110
5244,-165,51,-4053
5245,-201,120,-4053
5246,-201,120,-4053
5247,-126,9,-4053
5248,-171,9,-4110
5249,-171,75,-4059
5250,-237,9,-4059
5251,-237,9,-4140
5252,-216,57,-4140
5253,-189,57,-4089
5254,-189,30,-4158
5255,-189,63,-4158
5256,-189,63,-4095
5257,-165,9,-4095
5258,-222,9,-4170
5259,-222,39,-4119
5260,-207,24,-4119
5261,-207,24,-4179
5262,-168,51,-4179
5263,-183,51,-4173
5264,-183,54,-4134
5265,-132,69,-4134
5266,-132,69,-4098
5267,-168,54,-4098
5268,-174,54,-4113
5269,-174,60,-4059
5270,-213,60,-4059
5271,-213,60,-4080
5272,-84,84,-4080
5273,-78,84,-4083
5274,-78,27,-4104
5275,-135,33,-4104
5276,-135,33,-4110
5277,-168,24,-4110
5278,-150,24,-4170
5279,-150,78,-4143
5280,-126,72,-4143
5281,-126,72,-4155
5282,-96,75,-4155
5283,-114,75,-4110
5284,-114,63,-4128
5285,-186,30,-4128
5286,-186,30,-4125
5287,-174,27,-4125
5288,-216,27,-4089
5289,-216,54,-4128
5290,-189,90,-4128
5291,-144,90,-4098
5292,-144,24,-4098
5293,-189,24,-4155
5294,-189,78,-4098
5295,-165,57,-4098
5296,-186,57,-4143
5297,-186,54,-4143
5298,-237,54,-4110
5299,-237,36,-4155
5300,-198,87,-4155
5301,-147,87,-4083
5302,-147,63,-4083
5303,-147,63,-4110
5304,-147,78,-4068
5305,-168,51,-4068
5306,-150,51,-4155
5307,-150,81,-4155
5308,-156,81,-4134
5309,-156,51,-4110
5310,-243,96,-4110
5311,-273,96,-4206
5312,-273,57,-4206
5313,-237,57,-4173
5314,-237,75,-4215
5315,-264,12,-4215
5316,-168,12,-4191
5317,-168,12,-4191
5318,-165,12,-4158
5319,-165,45,-4068
5320,-219,6,-4068
5321,-186,6,-3993
5322,-186,-30,-3993
5323,-93,-30,-3972
5324,-93,57,-4008
5325,-48,57,-4008
5326,-78,57,-4023
5327,-78,66,-4023
5328,-105,66,-4035
5329,-105,60,-4074
5330,-75,75,-4074
5331,-18,75,-4149
5332,-18,75,-4149
5333,-15,75,-4164
5334,-15,48,-4230
5335,-96,60,-4230
5336,-27,60,-4221
5337,-27,87,-4221
5338,45,87,-4215
5339,45,21,-4284
5340,-105,-78,-4284
5341,-240,-78,-4335
5342,-240,-99,-4335
5343,-156,-99,-4305
5344,-156,-12,-4278
5345,-273,9,-4278
5346,-291,9,-4206
5347,-291,57,-4206
5348,-393,57,-4170
5349,-393,129,-4113
5350,-471,156,-4113
5351,-423,156,-4083
5352,-423,48,-4083
5353,-396,48,-4104
5354,-396,75,-4164
5355,-441,105,-4164
5356,-546,105,-4209
5357,-546,-78,-4209
5358,-567,-78,-4431
5359,-567,27,-4485
5360,-444,-78,-4485
5361,-339,-78,-4584
5362,-339,3,-4584
5363,-327,3,-4575
5364,-327,21,-4575
5365,-309,-105,-4575
5366,-300,-105,-4464
5367,-300,-51,-4464
5368,-249,-51,-4233
5369,-249,-66,-4125
5370,-372,-99,-4125
5371,-351,-99,-4125
5372,-351,-45,-4125
5373,-225,-45,-4155
5374,-225,-27,-4044
5375,-264,-69,-4044
5376,-333,-69,-4029
5377,-333,0,-4029
5378,-171,0,-4200
5379,-171,-78,-4380
5380,-96,-144,-4380
5381,-174,-144,-4380
5382,-174,-168,-4380
5383,-75,-168,-4371
5384,-75,-174,-4416
5385,27,-210,-4416
5386,75,-210,-4455
5387,75,-273,-4455
5388,312,-273,-4506
5389,312,-243,-4449
5390,195,-222,-4449
5391,159,-222,-4506
5392,159,-318,-4524
5393,192,-318,-4524
5394,192,-372,-4500
5395,366,-381,-4500
5396,351,-381,-4275
5397,351,-348,-4023
5398,174,-348,-4023
5399,174,-261,-3894
5400,33,-438,-3894
5401,78,-438,-3897
5402,78,-324,-3789
5403,-18,-324,-3789
5404,-18,-387,-3732
5405,-135,-429,-3732
5406,-135,-429,-3678
5407,-135,-444,-3699
5408,-153,-444,-3699
5409,-153,-567,-3789
5410,-75,-552,-3789
5411,-102,-552,-3789
5412,-102,-528,-3747
5413,-174,-528,-3747
5414,-174,-603,-3792
5415,-183,-615,-3792
5416,-222,-615,-3783
5417,-222,-684,-3753
5418,-273,-684,-3753
5419,-273,-684,-3807
5420,-390,-726,-3807
5421,-102,-726,-3885
5422,-102,-660,-3792
5423,102,-660,-3792
5424,102,-609,-3759
5425,-96,-639,-3759
5426,-609,-639,-3999
5427,-609,-774,-4125
5428,-405,-774,-4125
5429,-405,-663,-4179
5430,144,-657,-4179
5431,354,-657,-4326
5432,354,-687,-4374
5433,360,-687,-4374
5434,360,-813,-4329
5435,93,-735,-4329
5436,-216,-735,-4074
5437,-216,-699,-4059
5438,-189,-699,-4059
5439,-189,-696,-4005
5440,-78,-633,-4005
5441,261,-633,-3975
5442,261,-735,-4038
5443,225,-735,-4038
5444,225,-801,-4143
5445,33,-834,-4143
5446,33,-834,-4068
5447,33,-696,-3930
5448,63,-696,-3930
5449,63,-840,-4014
5450,267,-726,-4014
5451,258,-726,-4035
5452,258,-717,-4050
5453,183,-717,-4050
5454,183,-864,-4059
5455,-30,-954,-4059
5456,-105,-954,-4125
5457,-105,-906,-4128
5458,0,-906,-4128
5459,0,-822,-3984
5460,-60,-837,-3984
5461,126,-837,-4206
5462,126,-849,-4329
5463,294,-849,-4329
5464,294,-1023,-4320
5465,279,-999,-4320
5466,300,-999,-4074
5467,300,-915,-3738
5468,162,-915,-3738
5469,162,-846,-3738
5470,-312,-753,-3738
5471,-420,-753,-4044
5472,-420,-918,-4059
5473,69,-918,-4059
5474,69,-762,-4125
5475,156,-1026,-4125
5476,489,-1026,-4065
5477,489,-945,-4065
5478,231,-945,-3852
5479,231,-861,-3522
5480,-96,-795,-3522
5481,-183,-795,-3456
5482,-183,-735,-3456
5483,87,-735,-3537
5484,87,-975,-3648
5485,597,-960,-3648
5486,579,-960,-3672
5487,579,-936,-3672
5488,159,-936,-3930
5489,159,-1059,-4035
5490,387,-1116,-4035
5491,825,-1116,-3747
5492,825,-969,-3747
5493,579,-969,-3723
5494,579,-1275,-3828
5495,621,-1197,-3828
5496,579,-1197,-3738
5497,579,-1191,-3738
5498,681,-1191,-3579
5499,681,-867,-3513
5500,924,-1005,-3513
5501,1092,-1005,-3702
5502,1092,-1203,-3702
5503,657,-1203,-3837
5504,657,-1101,-3597
5505,540,-1044,-3597
5506,480,-1044,-3486
5507,480,-1065,-3486
5508,609,-1065,-3348
5509,609,-834,-3261
5510,171,-867,-3261
5511,297,-867,-3222
5512,297,-993,-3222
5513,597,-993,-3372
5514,597,-942,-3654
5515,711,-1191,-3654
5516,552,-1191,-3894
5517,552,-1158,-3894
5518,54,-1158,-3792
5519,54,-1041,-3792
5520,-48,-963,-3792
5521,102,-963,-3792
5522,102,-1098,-3792
5523,-132,-1098,-3753
5524,-132,-903,-3699
5525,-528,-867,-3699
5526,-771,-867,-3603
5527,-771,-1080,-3603
5528,-840,-1080,-3492
5529,-840,-927,-3312
5530,-1098,-900,-3312
5531,-1116,-900,-3426
5532,-1116,-915,-3426
5533,-990,-915,-3624
5534,-990,-771,-3753
5535,-1026,-510,-3753
5536,-888,-510,-3747
5537,-888,-627,-3747
5538,-765,-627,-3774
5539,-765,-735,-3792
5540,-756,-711,-3792
5541,-690,-711,-3930
5542,-690,-624,-3930
5543,-615,-624,-4140
5544,-615,-564,-4461
5545,-591,-510,-4461
5546,-294,-510,-4560
5547,-294,-615,-4560
5548,-432,-615,-4665
5549,-432,-510,-4536
5550,-960,-471,-4536
5551,-993,-471,-4530
5552,-993,-282,-4530
5553,-147,-282,-4551
5554,-147,-486,-4539
5555,198,-459,-4539
5556,-33,-459,-4401
5557,-33,-381,-4401
5558,-219,-381,-4566
5559,-219,-492,-4710
5560,-375,-297,-4710
5561,-135,-297,-4566
5562,-135,-342,-4566
5563,111,-342,-4650
5564,111,-522,-4680
5565,153,-501,-4680
5566,207,-501,-4470
5567,207,-495,-4470
5568,-84,-495,-4323
5569,-84,-501,-4389
5570,-264,-432,-4389
5571,-189,-432,-4401
5572,-189,-516,-4401
5573,-234,-516,-4410
5574,-234,-579,-4386
5575,-291,-375,-4386
5576,-471,-375,-4245
5577,-471,-615,-4245
5578,-426,-615,-4074
5579,-426,-471,-3717
5580,-444,-300,-3717
5581,-354,-300,-3378
5582,-354,-261,-3378
5583,-411,-261,-3513
5584,-411,-711,-3858
5585,-495,-795,-3858
5586,-603,-795,-3864
5587,-603,-612,-3864
5588,-738,-612,-3852
5589,-738,-486,-3687
5590,-420,-537,-3687
5591,-402,-537,-3837
5592,-402,-447,-3837
5593,-285,-447,-3618
5594,-285,-606,-3813
5595,-603,-561,-3813
5596,-750,-561,-3759
5597,-750,-732,-3759
5598,-756,-732,-3579
5599,-756,-651,-3498
5600,-885,-600,-3498
5601,-801,-600,-3267
5602,-801,-480,-3267
5603,-600,-480,-3693
5604,-600,-306,-3648
5605,-474,-465,-3648
5606,-429,-465,-3957
5607,-429,-783,-3957
5608,-516,-783,-4419
5609,-516,-639,-4521
5610,-483,-585,-4521
5611,-570,-585,-4599
5612,-570,-873,-4599
5613,-429,-873,-4506
5614,-429,-600,-4299
5615,-489,-393,-4299
5616,-585,-393,-4269
5617,-585,-600,-4269
5618,-420,-600,-4230
5619,-420,-552,-4341
5620,-498,-336,-4341
5621,-498,-336,-4341
5622,-498,-429,-4341
5623,-498,-429,-4479
5624,-498,-324,-4404
5625,-477,-285,-4404
5626,-576,-285,-4401
5627,-576,-147,-4365
5628,-645,-147,-4365
5629,-645,-222,-4461
5630,-714,-255,-4461
5631,-723,-255,-4389
5632,-723,-216,-4389
5633,-579,-216,-4293
5634,-579,54,-4104
5635,-336,117,-4104
5636,-117,117,-3975
5637,-117,138,-3975
5638,63,138,-3930
5639,63,234,-3933
5640,6,-114,-3933
5641,-186,-114,-4389
5642,-186,-444,-4389
5643,-231,-444,-4515
5644,-231,75,-3984
5645,-237,441,-3984
5646,-153,441,-3663
5647,-153,435,-3579
5648,-345,435,-3579
5649,-345,591,-3933
5650,-594,381,-3933
5651,-597,381,-4236
5652,-597,54,-4266
5653,-480,54,-4266
5654,-480,135,-4143
5655,-411,282,-4143
5656,-381,282,-4140
5657,-381,204,-4281
5658,-291,204,-4281
5659,-291,15,-4164
5660,-294,186,-4164
5661,-309,186,-4089
5662,-309,414,-4044
5663,-327,414,-4044
5664,-327,444,-4050
5665,-321,417,-4050
5666,-480,417,-4008
5667,-480,222,-4158
5668,-705,222,-4158
5669,-705,381,-4083
5670,-633,510,-4083
5671,-621,510,-3990
5672,-621,555,-4104
5673,-846,555,-4104
5674,-846,453,-4155
5675,-1041,279,-4155
5676,-1029,279,-4155
5677,-1029,411,-4119
5678,-819,411,-4119
5679,-819,453,-4239
5680,-684,405,-4239
5681,-732,405,-4221
5682,-732,444,-4155
5683,-969,444,-4155
5684,-969,480,-4074
5685,-960,573,-4074
5686,-867,573,-3990
5687,-867,534,-3978
5688,-783,534,-3978
5689,-783,627,-4035
5690,-882,663,-4035
5691,-756,663,-4059
5692,-756,720,-4044
5693,-513,720,-4044
5694,-513,612,-4149
5695,-324,534,-4149
5696,-219,534,-4221
5697,-219,570,-4305
5698,-222,570,-4305
5699,-222,561,-4344
5700,-51,669,-4344
5701,-129,669,-4269
5702,-129,792,-4224
5703,-66,792,-4224
5704,-66,768,-4320
5705,-75,666,-4320
5706,-132,666,-4350
5707,-132,522,-4356
5708,-312,522,-4356
5709,-312,462,-4254
5710,-369,558,-4254
5711,-276,558,-4179
5712,-276,570,-4083
5713,-264,570,-4083
5714,-264,606,-4014
5715,-306,531,-4014
5716,-540,531,-3954
5717,-540,531,-4023
5718,-525,531,-4023
5719,-525,504,-4059
5720,-411,489,-4059
5721,-282,489,-4059
5722,-282,480,-4023
5723,-273,480,-4023
5724,-273,468,-4029
5725,-426,387,-4029
5726,-528,387,-4068
5727,-528,441,-4005
5728,-510,441,-4005
5729,-510,531,-3924
5730,-474,519,-3924
5731,-549,519,-3990
5732,-549,468,-3999
5733,-516,468,-3999
5734,-516,402,-4104
5735,-483,462,-4104
5736,-402,462,-4119
5737,-402,474,-4044
5738,-354,474,-4044
5739,-354,528,-4119
5740,-321,477,-4119
5741,-243,477,-4224
5742,-243,369,-4260
5743,-207,369,-4260
5744,-207,387,-4236
5745,-87,396,-4236
5746,-51,396,-4125
5747,-51,540,-4098
5748,-51,540,-4098
5749,-51,513,-4113
5750,-105,408,-4113
5751,-147,408,-4128
5752,-147,405,-4083
5753,-237,405,-4083
5754,-237,375,-4185
5755,-138,402,-4185
5756,-105,402,-4029
5757,-105,333,-4110
5758,-201,333,-4110
5759,-201,345,-4014
5760,-345,270,-4014
5761,-405,270,-4014
5762,-405,267,-4065
5763,-411,267,-4065
5764,-411,189,-4038
5765,-345,213,-4038
5766,-276,213,-4038
5767,-276,225,-3903
5768,-243,225,-3903
5769,-243,240,-3939
5770,-225,198,-3939
5771,-255,198,-3960
5772,-255,207,-3963
5773,-342,207,-3963
5774,-342,270,-3924
5775,-459,237,-3924
5776,-522,237,-3909
5777,-522,213,-3885
5778,-567,213,-3885
5779,-567,288,-3903
5780,-528,255,-3903
5781,-480,255,-3990
5782,-480,279,-4014
5783,-510,279,-4014
5784,-510,318,-4014
5785,-516,423,-4014
5786,-501,423,-4149
5787,-501,417,-4224
5788,-423,417,-4224
5789,-423,288,-4296
5790,-381,291,-4296
5791,-258,291,-4266
5792,-258,327,-4209
5793,-105,327,-4209
5794,-105,417,-4260
5795,-30,387,-4260
5796,-87,387,-4143
5797,-87,339,-4194
5798,-264,339,-4194
5799,-264,351,-4119
5800,-339,372,-4119
5801,-342,372,-4098
5802,-342,444,-4038
5803,-201,444,-4038
5804,-201,441,-3978
5805,-156,477,-3978
5806,-231,477,-3975
5807,-231,444,-4080
5808,-291,444,-4080
5809,-291,336,-4140
5810,-288,360,-4140
5811,-258,360,-4074
5812,-258,432,-4053
5813,-276,432,-4053
5814,-276,486,-4065
5815,-324,432,-4065
5816,-432,432,-4074
5817,-432,393,-4080
5818,-303,393,-4080
5819,-303,432,-4113
5820,-198,474,-4113
5821,-129,474,-4104
5822,-129,462,-4104
5823,-66,462,-4170
5824,-66,477,-4251
5825,-132,504,-4251
5826,-81,504,-4230
5827,-81,513,-4230
5828,6,513,-4245
5829,6,480,-4284
5830,78,519,-4284
5831,51,519,-4221
5832,51,534,-4221
5833,-12,534,-4224
5834,-12,474,-4200
5835,-9,453,-4200
5836,-57,453,-4236
5837,-57,402,-4236
5838,-48,402,-4074
5839,-48,408,-4038
5840,-132,465,-4038
5841,-198,465,-4008
5842,-198,396,-4014
5843,-222,396,-4014
5844,-222,396,-3975
5845,-252,429,-3975
5846,-264,429,-3960
5847,-264,441,-3930
5848,-255,441,-3930
5849,-255,414,-3918
5850,-324,324,-3918
5851,-324,324,-4050
5852,-324,411,-4044
5853,-267,411,-4044
5854,-267,426,-4038
5855,-120,414,-4038
5856,-126,414,-4098
5857,-126,420,-4179
5858,-135,420,-4179
5859,-135,357,-4224
5860,-120,480,-4224
5861,-120,480,-4209
5862,-120,420,-4215
5863,-117,420,-4215
5864,-117,378,-4209
5865,-87,432,-4209
5866,-147,432,-4179
5867,-147,495,-4074
5868,-189,495,-4074
5869,-189,462,-4134
5870,-300,423,-4134
5871,-324,423,-4059
5872,-324,423,-4089
5873,-267,423,-4089
5874,-267,486,-3948
5875,-195,495,-3948
5876,-234,495,-4038
5877,-234,462,-4008
5878,-306,462,-4008
5879,-306,468,-4065
5880,-270,441,-4065
5881,-324,441,-4104
5882,-324,444,-4125
5883,-219,444,-4125
5884,-219,483,-4098
5885,-264,507,-4098
5886,-234,507,-4113
5887,-234,486,-4134
5888,-243,486,-4134
5889,-243,483,-4143
5890,-255,438,-4143
5891,-303,438,-4104
5892,-303,486,-4104
5893,-243,486,-4104
5894,-243,489,-4119
5895,-132,513,-4119
5896,-129,513,-4119
5897,-129,489,-4110
5898,-138,489,-4110
5899,-138,465,-4110
5900,-93,471,-4110
5901,-9,471,-4074
5902,-9,516,-4089
5903,-36,516,-4089
5904,-36,495,-4080
5905,-30,468,-4080
5906,-12,468,-4143
5907,-12,513,-4134
5908,57,513,-4134
5909,57,495,-4128
5910,9,489,-4128
5911,-24,489,-4140
5912,-24,483,-4164
5913,-6,483,-4164
5914,-6,480,-4074
5915,27,465,-4074
5916,84,465,-4080
5917,84,480,-4038
5918,18,480,-4038
5919,18,543,-4020
5920,-18,489,-4020
5921,-27,489,-3963
5922,-27,507,-4089
5923,-15,507,-4089
5924,-15,489,-4023
5925,-24,483,-4023
5926,3,483,-4029
5927,3,483,-4029
5928,-45,483,-4029
5929,-45,495,-4059
5930,-114,519,-4059
5931,-156,519,-4110
5932,-156,531,-4110
5933,-102,531,-4110
5934,-102,510,-4020
5935,-126,522,-4020
5936,-126,522,-4134
5937,-126,465,-4143
5938,-111,465,-4143
5939,-111,498,-4104
5940,-168,519,-4104
5941,-231,519,-4089
5942,-231,471,-4074
5943,-345,471,-4074
5944,-345,483,-4095
5945,-351,459,-4095
5946,-273,459,-3990
5947,-273,555,-3894
5948,-282,555,-3894
5949,-282,498,-3993
5950,-342,441,-3993
5951,-345,441,-4038
5952,-345,456,-4083
5953,-267,456,-4083
5954,-267,438,-4125
5955,-291,471,-4125
5956,-237,471,-4128
5957,-237,504,-4125
5958,-234,504,-4125
5959,-234,543,-4143
5960,-240,534,-4143
5961,-156,534,-4125
5962,-156,543,-4236
5963,-165,543,-4236
5964,-165,477,-4281
5965,-87,534,-4281
5966,-135,534,-4245
5967,-135,522,-4236
5968,-162,522,-4236
5969,-162,507,-4200
5970,-114,516,-4200
5971,-57,516,-4245
5972,-57,531,-4155
5973,3,531,-4155
5974,3,555,-4125
5975,15,480,-4125
5976,27,480,-4050
5977,27,528,-4143
5978,3,528,-4143
5979,3,483,-4098
5980,-30,480,-4098
5981,42,480,-4074
5982,42,516,-4143
5983,9,516,-4143
5984,9,480,-4113
5985,0,534,-4113
5986,-63,534,-4095
5987,-63,459,-4134
5988,-114,459,-4134
5989,-114,483,-4050
5990,-147,459,-4050
5991,-186,459,-4110
5992,-186,498,-4050
5993,-189,498,-4050
5994,-189,483,-3975
5995,-252,465,-3975
5996,-303,465,-4023
5997,-303,444,-3999
5998,-333,444,-3999
5999,-333,471,-4029
6000,-249,447,-4029
6001,-282,447,-3954
6002,-282,456,-3993
6003,-294,456,-3993
6004,-294,471,-3990
6005,-213,519,-3990
6006,-165,519,-4080
6007,-165,444,-4083
6008,-156,444,-4083
6009,-156,423,-4125
6010,-144,459,-4125
6011,-138,459,-4134
6012,-138,426,-4143
6013,-75,426,-4143
6014,-75,489,-4128
6015,-132,486,-4128
6016,-147,486,-4110
6017,-147,495,-4158
6018,-81,495,-4158
6019,-81,510,-4140
6020,-63,486,-4140
6021,-51,486,-4128
6022,-51,480,-4125
6023,-129,480,-4125
6024,-129,468,-4128
6025,-132,471,-4128
6026,-99,471,-4158
6027,-99,504,-4113
6028,-111,504,-4113
6029,-111,483,-4098
6030,-117,489,-4098
6031,-81,489,-4191
6032,-81,492,-4089
6033,-27,492,-4089
6034,-27,498,-4083
6035,-81,492,-4083
6036,-198,492,-4134
6037,-198,474,-4155
6038,-156,474,-4155
6039,-156,468,-4053
6040,-129,447,-4053
6041,-126,447,-4080
6042,-126,489,-4038
6043,-99,489,-4038
6044,-99,489,-4020
6045,-138,459,-4020
6046,-189,459,-4053
6047,-189,474,-4119
6048,-180,474,-4119
6049,-180,492,-4095
6050,-96,507,-4095
6051,-126,507,-4191
6052,-126,483,-4140
6053,-117,483,-4140
6054,-117,486,-4140
6055,-132,477,-4140
6056,-102,477,-4140
6057,-102,507,-4143
6058,-57,486,-4143
6059,-57,486,-4098
6060,-114,510,-4098
6061,-111,510,-4113
6062,-111,480,-4083
6063,-153,480,-4083
6064,-153,480,-4104
6065,-135,498,-4104
6066,-102,498,-4119
6067,-102,471,-4104
6068,-51,471,-4104
6069,-51,489,-4059
6070,-42,477,-4059
6071,-147,477,-4020
6072,-147,519,-4050
6073,-96,519,-4050
6074,-96,498,-4005
6075,-51,513,-4005
6076,-12,513,-4104
6077,-12,462,-4104
6078,9,462,-4104
6079,9,474,-4089
6080,18,492,-4089
6081,-78,492,-4155
6082,-78,492,-4068
6083,-84,492,-4068
6084,-84,474,-4143
6085,-75,477,-4143
6086,21,477,-4134
6087,21,498,-4125
6088,-24,498,-4125
6089,-24,441,-4173
6090,-102,429,-4173
6091,-132,429,-4089
6092,-132,522,-4098
6093,-153,462,-4098
6094,-153,462,-4128
6095,-162,462,-4128
6096,-222,462,-4038
6097,-222,456,-4074
6098,-234,459,-4074
6099,-234,459,-4020
6100,-216,462,-4020
6101,-264,462,-4110
6102,-264,459,-4098
6103,-300,468,-4098
6104,-300,468,-4053
6105,-309,510,-4053
6106,-264,510,-3990
6107,-264,510,-4059
6108,-237,507,-4059
6109,-237,507,-4128
6110,-219,513,-4128
6111,-219,513,-4143
6112,-219,486,-4134
6113,-183,525,-4134
6114,-183,525,-4206
6115,-174,510,-4206
6116,-171,510,-4239
6117,-171,507,-4239
6118,-96,516,-4239
6119,-96,516,-4179
6120,-105,528,-4179
6121,-129,528,-4236
6122,-129,504,-4170
6123,-144,534,-4170
6124,-144,534,-4110
6125,-165,516,-4110
6126,-132,516,-4074
6127,-132,474,-4098
6128,-114,507,-4098
6129,-114,507,-4044
6130,-99,522,-4044
6131,-138,522,-4044
6132,-138,468,-4020
6133,-120,447,-4020
6134,-120,447,-4065
6135,-111,483,-4065
6136,-165,483,-4029
6137,-165,438,-4113
6138,-201,432,-4113
6139,-201,432,-4098
6140,-198,462,-4098
6141,-102,462,-4110
6142,-102,480,-4104
6143,-99,465,-4104
6144,-99,465,-4110
6145,-168,480,-4110
6146,-231,480,-4089
6147,-231,465,-4038
6148,-171,507,-4038
6149,-171,507,-4023
6150,-156,489,-4023
6151,-135,489,-4023
6152,-135,477,-4080
6153,-240,432,-4080
6154,-240,432,-4113
6155,-198,456,-4113
6156,-105,456,-4113
6157,-105,480,-4119
6158,-147,477,-4119
6159,-147,477,-4083
6160,-102,495,-4083
6161,-9,495,-4089
6162,-9,504,-4074
6163,-15,477,-4074
6164,-15,477,-4104
6165,-96,432,-4104
6166,-150,432,-4089
6167,-150,522,-4110
6168,-75,465,-4110
6169,-75,465,-4068
6170,-75,510,-4068
6171,-138,510,-4104
6172,-138,495,-4020
6173,-168,477,-4020
6174,-168,477,-3993
6175,-168,534,-3993
6176,-153,534,-4074
6177,-153,519,-4050
6178,-96,480,-4050
6179,-96,480,-4074
6180,-240,516,-4074
6181,-252,516,-4083
6182,-252,474,-4119
6183,-201,498,-4119
6184,-243,498,-4143
6185,-243,474,-4143
6186,-222,474,-4098
6187,-222,525,-4128
6188,-174,495,-4128
6189,-180,495,-4128
6190,-180,519,-4128
6191,-111,519,-4149
6192,-111,483,-4104
6193,-171,474,-4104
6194,-195,474,-4158
6195,-195,540,-4158
6196,-129,540,-4050
6197,-129,528,-4068
6198,-12,525,-4068
6199,-30,525,-4080
6200,-30,465,-4080
6201,-84,465,-4083
6202,-84,486,-4074
6203,-78,492,-4074
6204,-48,492,-4038
6205,-48,504,-4038
6206,-48,504,-4050
6207,-48,522,-4014
6208,6,561,-4014
6209,-30,561,-3990
6210,-30,528,-3990
6211,-114,528,-4080
6212,-114,498,-4155
6213,-78,498,-4155
6214,36,498,-4143
6215,36,552,-4143
6216,90,552,-4185
6217,90,552,-4173
6218,111,549,-4173
6219,36,549,-4140
6220,36,528,-4140
6221,42,528,-4110
6222,42,522,-4038
6223,144,582,-4038
6224,165,582,-4074
6225,165,528,-4074
6226,216,528,-4014
6227,216,486,-4023
6228,183,519,-4023
6229,240,519,-4020
6230,240,534,-4020
6231,246,534,-4020
6232,246,516,-4008
6233,267,549,-4008
6234,372,549,-4143
6235,372,534,-4143
6236,282,534,-4104
6237,282,522,-4128
6238,312,573,-4128
6239,351,573,-4119
6240,351,567,-4095
6241,348,567,-4095
6242,348,534,-4134
6243,243,561,-4134
6244,264,561,-4113
6245,264,495,-4068
6246,300,495,-4068
6247,300,621,-4083
6248,276,537,-4083
6249,192,537,-4125
6250,192,468,-4158
6251,120,468,-4158
6252,120,483,-4098
6253,93,549,-4098
6254,42,549,-4125
6255,42,504,-4083
6256,54,504,-4083
6257,54,498,-4140
6258,-12,492,-4140
6259,3,492,-4128
6260,3,555,-4059
6261,18,555,-4059
6262,18,528,-4134
6263,-6,513,-4134
6264,-33,513,-4149
6265,-33,486,-4035
6266,33,486,-4035
6267,33,528,-4065
6268,6,561,-4065
6269,-48,561,-4119
6270,-48,453,-4134
6271,-42,453,-4134
6272,-42,486,-4068
6273,33,525,-4068
6274,54,525,-4104
6275,54,546,-4104
6276,39,546,-4104
6277,39,501,-4095
6278,21,483,-4095
6279,36,483,-4143
6280,36,528,-4110
6281,129,528,-4110
6282,129,486,-4089
6283,114,489,-4089
6284,72,489,-4020
6285,72,489,-4110
6286,54,489,-4110
6287,54,453,-4110
6288,36,420,-4110
6289,21,420,-4110
6290,21,411,-4098
6291,24,411,-4098
6292,24,441,-4044
6293,90,486,-4044
6294,63,486,-3990
6295,63,453,-4008
6296,15,453,-4008
6297,15,435,-4035
6298,0,465,-4035
6299,-57,465,-4029
6300,-57,411,-4083
6301,-33,411,-4083
6302,-33,447,-4098
6303,21,477,-4098
6304,60,477,-4059
6305,60,486,-4068
6306,60,486,-4068
6307,60,471,-4074
6308,33,483,-4074
6309,42,483,-4140
6310,42,462,-4164
6311,15,462,-4164
6312,15,438,-4104
6313,39,462,-4104
6314,-27,462,-4110
6315,-27,459,-4158
6316,-45,438,-4158
6317,-45,438,-4080
6318,-33,471,-4080
6319,-12,471,-4098
6320,-12,468,-4134
6321,-30,465,-4134
6322,-30,465,-4095
6323,-51,414,-4095
6324,-48,414,-4050
6325,-48,435,-4113
6326,-69,489,-4113
6327,-69,489,-4110
6328,-75,444,-4110
6329,-93,444,-4113
6330,-93,453,-4224
6331,-9,462,-4224
